time,.header.seq,.header.stamp.secs,.header.stamp.nsecs,.header.frame_id,.orientation.x,.orientation.y,.orientation.z,.orientation.w,.angular_velocity.x,.angular_velocity.y,.angular_velocity.z,.linear_acceleration.x,.linear_acceleration.y,.linear_acceleration.z
1969/12/31/18:00:37.044,1,1730343874,547506607,RU_myo,-0.4989999487439027,-0.7249414617392461,0.2326550641648431,-0.41392094574133415,-27.75,-7.5,-27.9375,0.955078125,0.58544921875,-0.2275390625
1969/12/31/18:00:37.063,2,1730343874,566700452,RU_myo,-0.50376712753425,-0.7242186497845179,0.2322919417731228,-0.4095930691643266,-28.875,-6.9375,-28.25,0.9794921875,0.57421875,-0.22119140625
1969/12/31/18:00:37.081,3,1730343874,584649147,RU_myo,-0.5079651079033061,-0.7251151564338795,0.23094316572222878,-0.4035402250939156,-24.5,-9.75,-31.5625,0.9287109375,0.66357421875,-0.31640625
1969/12/31/18:00:37.103,4,1730343874,607217403,RU_myo,-0.5119378765332964,-0.7261608077006629,0.22765000947415304,-0.3984790648409504,-12.9375,-6.625,-34.4375,0.94775390625,0.7373046875,-0.2197265625
1969/12/31/18:00:37.123,5,1730343874,626853465,RU_myo,-0.5196862051172293,-0.7228612346927145,0.22484133642417764,-0.39603567645398713,-31.5,5.3125,-32.0625,1.05029296875,0.74951171875,-0.00634765625
1969/12/31/18:00:37.141,6,1730343874,644588023,RU_myo,-0.533481459992575,-0.7141364332883102,0.22124131020170282,-0.39554894659785816,-64.125,29.5,-40.0625,1.07568359375,0.7236328125,0.12841796875
1969/12/31/18:00:37.163,7,1730343874,667171285,RU_myo,-0.5491235758723177,-0.7021970368357248,0.2153892518898977,-0.39873561422405823,-72.25,61.5625,-41.9375,1.029296875,0.642578125,0.18310546875
1969/12/31/18:00:37.183,8,1730343874,686830682,RU_myo,-0.5656612342717742,-0.688461234633752,0.20531769444219342,-0.40483717813170894,-64.8125,88.4375,-50.3125,0.98291015625,0.6162109375,0.31005859375
1969/12/31/18:00:37.201,9,1730343874,704671488,RU_myo,-0.5818563743207111,-0.6749875707978882,0.19309771012699078,-0.41054623768150034,-68.9375,107.875,-53.4375,0.9638671875,0.63525390625,0.34423828125
1969/12/31/18:00:37.223,10,1730343874,727314007,RU_myo,-0.6000197016257927,-0.6581845653883174,0.17925519923455935,-0.41789593093599864,-81.375,129.1875,-54.8125,0.91650390625,0.66259765625,0.45654296875
1969/12/31/18:00:37.243,11,1730343874,747022953,RU_myo,-0.6204096020892715,-0.6373770265241774,0.1633267186611796,-0.42681006860897946,-97.0,154.375,-57.3125,0.8076171875,0.65966796875,0.52001953125
1969/12/31/18:00:37.266,12,1730343874,769525077,RU_myo,-0.6430818019873786,-0.6112237113887822,0.14635191811385917,-0.43752998371903934,-120.8125,180.9375,-55.3125,0.7822265625,0.67578125,0.5361328125
1969/12/31/18:00:37.288,13,1730343874,791812729,RU_myo,-0.6673311635949457,-0.5793830927388713,0.12883995668089723,-0.4498717767384621,-144.6875,204.4375,-50.375,0.7294921875,0.673828125,0.6240234375
1969/12/31/18:00:37.303,14,1730343874,806771106,RU_myo,-0.6915434916082852,-0.5432378976970564,0.10991702659840454,-0.46322611431531946,-157.0,225.1875,-48.3125,0.67724609375,0.60107421875,0.62939453125
1969/12/31/18:00:37.321,15,1730343874,824923061,RU_myo,-0.7132693800191606,-0.5049095217676492,0.09014279749193979,-0.477689692599467,-155.3125,237.625,-40.0625,0.65771484375,0.49169921875,0.6298828125
1969/12/31/18:00:37.344,16,1730343874,847497293,RU_myo,-0.7302971207676198,-0.4663990136140858,0.06939226360628312,-0.4942901872887308,-138.375,247.5,-22.3125,0.71044921875,0.43505859375,0.705078125
1969/12/31/18:00:37.364,17,1730343874,867407375,RU_myo,-0.7420334171368211,-0.42911967066038736,0.04778846567018678,-0.5127952599756186,-116.3125,252.75,-4.0,0.7958984375,0.35693359375,0.6591796875
1969/12/31/18:00:37.386,18,1730343874,890057891,RU_myo,-0.7480780946908874,-0.3948817224973519,0.02490135127958571,-0.5327546453909404,-85.5625,253.4375,14.6875,0.8095703125,0.3076171875,0.64208984375
1969/12/31/18:00:37.402,19,1730343874,906338333,RU_myo,-0.7482735728200213,-0.3649206926501556,-6.1033733508974,-0.5540031990609571,-47.5625,252.25,32.75,0.77001953125,0.27197265625,0.6279296875
1969/12/31/18:00:37.424,20,1730343874,927417079,RU_myo,-0.7435490461106069,-0.3401295932015441,-0.026548783966027577,-0.5751015892227077,-11.375,242.1875,45.5625,0.70654296875,0.31640625,0.5986328125
1969/12/31/18:00:37.440,21,1730343874,944054075,RU_myo,-0.7347054749127888,-0.319869695465852,-0.053342132004799585,-0.5958572480124238,16.625,228.375,58.1875,0.62353515625,0.349609375,0.5947265625
1969/12/31/18:00:37.462,22,1730343874,966345073,RU_myo,-0.7224796180566632,-0.3030166669751084,-0.08043826124334195,-0.6162254353368921,37.6875,218.25,69.125,0.564453125,0.369140625,0.55322265625
1969/12/31/18:00:37.483,23,1730343874,987401206,RU_myo,-0.7072224185294124,-0.289346003300651,-0.10851238006086428,-0.6358776647098677,59.75,210.1875,77.3125,0.478515625,0.3955078125,0.5791015625
1969/12/31/18:00:37.500,24,1730343875,3859945,RU_myo,-0.6894870703023861,-0.28050655706026084,-0.1342110354602945,-0.6541491032575882,75.8125,180.1875,88.875,0.3388671875,0.4892578125,0.70361328125
1969/12/31/18:00:37.524,25,1730343875,27604251,RU_myo,-0.6709380703007308,-0.2733677446444986,-0.15770981294069758,-0.6709991035100732,74.0,163.875,91.5625,0.30322265625,0.5625,0.52099609375
1969/12/31/18:00:37.543,26,1730343875,47372510,RU_myo,-0.6552384986213655,-0.26292543331416196,-0.1758939412282764,-0.6859985771706547,37.1875,150.75,78.5625,0.296875,0.603515625,0.47412109375
1969/12/31/18:00:37.560,27,1730343875,64249551,RU_myo,-0.6404781399701007,-0.25145511117560654,-0.19103264514069138,-0.7000461468893706,19.5625,141.375,74.5,0.30078125,0.70849609375,0.47412109375
1969/12/31/18:00:37.582,28,1730343875,86438655,RU_myo,-0.626855849444318,-0.23967120248932305,-0.20488317462609051,-0.7124832232901342,12.8125,133.75,66.1875,0.26416015625,0.6943359375,0.41650390625
1969/12/31/18:00:37.604,29,1730343875,107567284,RU_myo,-0.6139143499485751,-0.22746384156062624,-0.21678335530543183,-0.7241369681021815,5.25,126.5,62.1875,0.22900390625,0.60986328125,0.49462890625
1969/12/31/18:00:37.620,30,1730343875,123911070,RU_myo,-0.5998403607998668,-0.21789072935037895,-0.22979232381069378,-0.7347861318345132,25.3125,119.4375,65.0,0.22998046875,0.529296875,0.68798828125
1969/12/31/18:00:37.642,31,1730343875,146318191,RU_myo,-0.5841425766154564,-0.21385807005125476,-0.2473039097738825,-0.7428882501894614,68.0,110.125,65.4375,0.17578125,0.60107421875,0.6982421875
1969/12/31/18:00:37.665,32,1730343875,168833042,RU_myo,-0.5686398100697053,-0.21184381032005442,-0.26622376854395774,-0.7489298174697171,81.1875,101.875,59.5625,0.0673828125,0.66015625,0.54541015625
1969/12/31/18:00:37.680,33,1730343875,184231788,RU_myo,-0.5536200458508231,-0.2112923160330228,-0.28526293620402904,-0.753316307566609,83.4375,92.625,54.625,0.00341796875,0.6064453125,0.50927734375
1969/12/31/18:00:37.703,34,1730343875,206715031,RU_myo,-0.5388409643925176,-0.21427915120422802,-0.30533711007540665,-0.7553172245239322,109.5625,77.875,50.5,0.03662109375,0.6533203125,0.5751953125
1969/12/31/18:00:37.724,35,1730343875,227485998,RU_myo,-0.5243752840413226,-0.22105298868687973,-0.3267580622389713,-0.7545828691674713,130.625,62.4375,44.625,0.08642578125,0.7626953125,0.572265625
1969/12/31/18:00:37.740,36,1730343875,243910074,RU_myo,-0.5116273604652133,-0.22642699598305396,-0.3458046790404269,-0.7532512087393132,113.0,57.0,35.9375,0.0751953125,0.89453125,0.45458984375
1969/12/31/18:00:37.763,37,1730343875,266858131,RU_myo,-0.5004034797003,-0.23021367550061367,-0.36186025504855207,-0.752100509860568,85.125,53.375,29.0,0.03076171875,0.85791015625,0.48046875
1969/12/31/18:00:37.783,38,1730343875,287400918,RU_myo,-0.48990963957552236,-0.2346097738293644,-0.3754122577586942,-0.751007613675944,82.0625,42.75,30.0625,0.044921875,0.7724609375,0.49853515625
1969/12/31/18:00:37.800,39,1730343875,303442964,RU_myo,-0.479344420801846,-0.24028252924584514,-0.3890172317533698,-0.7491053502574303,84.4375,34.4375,33.1875,0.0048828125,0.76513671875,0.4013671875
1969/12/31/18:00:37.822,40,1730343875,326411021,RU_myo,-0.4703120303710531,-0.24589763435828874,-0.4018342081446942,-0.7462373728713816,82.9375,24.5625,29.75,-0.07666015625,0.6943359375,0.357421875
1969/12/31/18:00:37.843,41,1730343875,347387418,RU_myo,-0.46144942981071674,-0.2546180427417419,-0.41421204604223444,-0.7420663426886001,92.6875,9.6875,30.5625,-0.02880859375,0.73046875,0.35888671875
1969/12/31/18:00:37.859,42,1730343875,363414013,RU_myo,-0.45236212288794114,-0.2649357765052014,-0.4250202136793878,-0.7379263933942386,86.0,0.9375,35.25,0.02734375,0.97412109375,0.392578125
1969/12/31/18:00:37.883,43,1730343875,387036932,RU_myo,-0.4462094187353431,-0.270496531778832,-0.4317446899376032,-0.7357481251339845,48.4375,4.125,26.0,-0.0244140625,1.16015625,0.48779296875
1969/12/31/18:00:37.904,44,1730343875,407523354,RU_myo,-0.44454698203876264,-0.2715251953721108,-0.4326460125855009,-0.7358460958870622,1.625,0.5625,11.4375,-0.0302734375,1.09326171875,0.482421875
1969/12/31/18:00:37.919,45,1730343875,423286173,RU_myo,-0.445038243872312,-0.27079466374951294,-0.4286208977941919,-0.7381702632522783,-28.625,-4.4375,7.875,0.02783203125,0.98828125,0.494140625
1969/12/31/18:00:37.942,46,1730343875,446353060,RU_myo,-0.4454705028145109,-0.2696381259671885,-0.42380424325852356,-0.7411081402488842,-29.1875,-3.3125,8.9375,0.0419921875,0.9033203125,0.55126953125
1969/12/31/18:00:37.965,47,1730343875,469175770,RU_myo,-0.4455212788835995,-0.2693267676319622,-0.42269594212983697,-0.741823444497281,-7.125,-2.1875,5.5625,-0.0224609375,0.8310546875,0.4814453125
1969/12/31/18:00:37.979,48,1730343875,483404012,RU_myo,-0.44466620526448514,-0.2712183113087252,-0.42409902009098366,-0.7408458778075192,14.8125,-7.0,8.6875,-0.06640625,0.74951171875,0.43212890625
1969/12/31/18:00:38.002,49,1730343875,506486456,RU_myo,-0.44175247818596636,-0.2761105569650887,-0.42606715255819716,-0.7396516003227033,38.9375,-10.8125,18.375,0.02734375,0.81982421875,0.6279296875
1969/12/31/18:00:38.025,50,1730343875,528955064,RU_myo,-0.4393803286362554,-0.2797166337185663,-0.4269905235642788,-0.7391769912645769,31.625,-6.0,11.6875,0.11865234375,1.044921875,0.7900390625
1969/12/31/18:00:38.039,51,1730343875,543214970,RU_myo,-0.43827067268120784,-0.27769552439764594,-0.42630840393792463,-0.740989310266334,-11.125,14.1875,2.375,0.0927734375,1.09423828125,0.59814453125
1969/12/31/18:00:38.063,52,1730343875,566842043,RU_myo,-0.438202240905785,-0.27201495650655766,-0.4245313074847689,-0.7441504071537934,-27.4375,24.875,-3.125,0.0400390625,0.92822265625,0.55322265625
1969/12/31/18:00:38.085,53,1730343875,588892386,RU_myo,-0.4371109656769685,-0.2674420904211779,-0.42350083647479536,-0.7470313068816106,-10.875,24.375,0.6875,0.05078125,0.7236328125,0.58935546875
1969/12/31/18:00:38.106,54,1730343875,609897003,RU_myo,-0.4334488400358218,-0.2656720361413591,-0.4264301669009134,-0.7481295242409327,20.0,26.375,7.4375,0.05517578125,0.6396484375,0.51318359375
1969/12/31/18:00:38.122,55,1730343875,626431378,RU_myo,-0.4273359625047624,-0.2665204439100682,-0.43563611830319826,-0.7460375329417618,58.9375,30.125,10.625,-0.005859375,0.72802734375,0.43994140625
1969/12/31/18:00:38.145,56,1730343875,648868668,RU_myo,-0.41984054081644157,-0.26964028337360646,-0.4491970316047405,-0.7411140699424408,87.5625,29.6875,9.4375,-0.01904296875,0.86279296875,0.40869140625
1969/12/31/18:00:38.166,57,1730343875,669918073,RU_myo,-0.41294863007694294,-0.27226778580745525,-0.4623242496058,-0.7359347593064998,80.9375,29.4375,5.3125,-0.01220703125,0.95849609375,0.37646484375
1969/12/31/18:00:38.182,58,1730343875,686341219,RU_myo,-0.40854208654866503,-0.27384648078037943,-0.4718313222449551,-0.7317627155241252,53.375,19.375,1.625,-0.03662109375,1.03076171875,0.3212890625
1969/12/31/18:00:38.205,59,1730343875,708824906,RU_myo,-0.4069025590279735,-0.2745234304046535,-0.47733387043014563,-0.7288481115812299,23.3125,8.8125,-3.5625,-0.03759765625,1.064453125,0.275390625
1969/12/31/18:00:38.227,60,1730343875,731359811,RU_myo,-0.40744467966381587,-0.27396931800642144,-0.4787902204857153,-0.7277977538932001,-1.6875,2.3125,-8.375,0.00537109375,0.951171875,0.2734375
1969/12/31/18:00:38.242,61,1730343875,746358267,RU_myo,-0.40786192346027267,-0.2743287963420508,-0.47853439201735715,-0.7275968654037663,-0.4375,-1.6875,-4.8125,0.07080078125,0.80126953125,0.3388671875
1969/12/31/18:00:38.265,62,1730343875,768884395,RU_myo,-0.4071318621341756,-0.2757950659547803,-0.4796966626254865,-0.7266855167788381,11.9375,-0.5,-2.3125,0.0908203125,0.8427734375,0.35693359375
1969/12/31/18:00:38.286,63,1730343875,789989872,RU_myo,-0.4056934753885818,-0.27727778827897204,-0.48393915546202276,-0.7241082280743395,28.625,4.625,-5.75,0.0556640625,0.94287109375,0.35888671875
1969/12/31/18:00:38.303,64,1730343875,806841343,RU_myo,-0.40402896839457525,-0.2785480682406105,-0.4895341926726417,-0.7207827970906244,38.25,6.0,-3.5625,-0.03466796875,0.91064453125,0.36083984375
1969/12/31/18:00:38.325,65,1730343875,828879772,RU_myo,-0.4019595929302966,-0.280444022094551,-0.4952171480468306,-0.7173141657621889,41.75,4.6875,-0.0625,-0.0458984375,0.8671875,0.33935546875
1969/12/31/18:00:38.346,66,1730343875,849931403,RU_myo,-0.39994302212292754,-0.2822732301722173,-0.50107312858679,-0.7136477579251322,42.0625,4.6875,-2.1875,-0.03466796875,0.9150390625,0.33154296875
1969/12/31/18:00:38.363,67,1730343875,866832309,RU_myo,-0.39914659102960287,-0.2833086354066386,-0.5061349662704123,-0.7101025361818699,30.0,2.1875,-5.375,-0.0703125,0.978515625,0.2744140625
1969/12/31/18:00:38.385,68,1730343875,888888126,RU_myo,-0.4001244326017791,-0.2837368040216094,-0.5091272142715133,-0.7072364132076596,12.3125,-5.0,-6.5625,-0.1220703125,1.044921875,0.236328125
1969/12/31/18:00:38.413,69,1730343875,917381513,RU_myo,-0.4031077644031257,-0.2837317178970676,-0.5089960265135607,-0.7056369374759938,-10.875,-13.0,-11.5,-0.0732421875,1.18603515625,0.25537109375
1969/12/31/18:00:38.430,70,1730343875,933866532,RU_myo,-0.4087111674399537,-0.2816488036039102,-0.5062965275618719,-0.7051900163907221,-27.375,-15.4375,-24.4375,-0.03466796875,1.130859375,0.3349609375
1969/12/31/18:00:38.445,71,1730343875,948893445,RU_myo,-0.41568109317158086,-0.27884993608882,-0.5024669564060528,-0.7049673039531539,-29.875,-18.1875,-30.625,-0.0283203125,0.94677734375,0.38427734375
1969/12/31/18:00:38.466,72,1730343875,969939318,RU_myo,-0.4219043497619827,-0.2768346782179016,-0.49898596320757566,-0.7045369323958236,-20.9375,-18.375,-27.5,-0.01025390625,0.9150390625,0.44140625
1969/12/31/18:00:38.482,73,1730343875,986385718,RU_myo,-0.42727410199129834,-0.2751862485186065,-0.4978252892362549,-0.702765502703871,-6.875,-13.1875,-31.1875,-0.00927734375,1.04638671875,0.474609375
1969/12/31/18:00:38.505,74,1730343876,8936487,RU_myo,-0.43368835491902197,-0.271833370786564,-0.4987477112859904,-0.6994796278816368,-4.625,-7.6875,-44.5,-0.0693359375,1.14111328125,0.44580078125
1969/12/31/18:00:38.526,75,1730343876,30000146,RU_myo,-0.44218445114549504,-0.2670195961023521,-0.49906725424661325,-0.6957767761295575,-15.6875,-10.625,-56.5625,-0.09716796875,1.09033203125,0.38134765625
1969/12/31/18:00:38.542,76,1730343876,46293313,RU_myo,-0.4520561257452391,-0.26206682920886415,-0.497463140400897,-0.6924569734987827,-18.75,-15.875,-62.75,-0.03955078125,0.904296875,0.44970703125
1969/12/31/18:00:38.565,77,1730343876,68632710,RU_myo,-0.4611008296161364,-0.2577404107834473,-0.49546214888468504,-0.6895456218402527,-15.375,-15.125,-58.5625,0.00146484375,0.79638671875,0.46337890625
1969/12/31/18:00:38.586,78,1730343876,89727717,RU_myo,-0.4682470062102065,-0.2544475715446234,-0.49485749822110975,-0.6863798008133449,-13.1875,-11.5625,-50.0625,-0.0419921875,0.96826171875,0.39501953125
1969/12/31/18:00:38.602,79,1730343876,106138506,RU_myo,-0.47599184262975947,-0.24980569456130344,-0.49491189279198866,-0.6827086487570829,-18.3125,-8.75,-55.875,-0.1123046875,1.0205078125,0.34912109375
1969/12/31/18:00:38.625,80,1730343876,128814304,RU_myo,-0.48537013975598,-0.24424133022801858,-0.494829761491448,-0.6781633337065823,-15.6875,-10.9375,-66.0625,-0.1181640625,0.85791015625,0.376953125
1969/12/31/18:00:38.647,81,1730343876,151380948,RU_myo,-0.49337169446265355,-0.2415592734640256,-0.49538570558552186,-0.6729238375983694,4.3125,-15.9375,-56.4375,-0.0849609375,0.6591796875,0.38232421875
1969/12/31/18:00:38.662,82,1730343876,165707772,RU_myo,-0.4984983972759338,-0.2414983053404591,-0.49721675350233013,-0.6677974367033873,19.1875,-13.9375,-40.0625,-0.0908203125,0.7392578125,0.390625
1969/12/31/18:00:38.685,83,1730343876,188897450,RU_myo,-0.5018633784861339,-0.2416243603826589,-0.5007648085222824,-0.6625597515317365,22.6875,-6.5,-34.4375,-0.15380859375,0.9228515625,0.3671875
1969/12/31/18:00:38.706,84,1730343876,209830165,RU_myo,-0.5060732381563148,-0.2405861920902307,-0.5039371354868175,-0.6573093071567185,17.4375,-6.375,-39.1875,-0.1865234375,0.9130859375,0.36865234375
1969/12/31/18:00:38.722,85,1730343876,225623598,RU_myo,-0.510710615736583,-0.23942611681819018,-0.5055229481532167,-0.6529137389041546,11.75,-9.3125,-37.0,-0.166015625,0.8134765625,0.37744140625
1969/12/31/18:00:38.745,86,1730343876,248958590,RU_myo,-0.5146051043323021,-0.23856633691116802,-0.5062439919872446,-0.6496035021955673,7.625,-9.6875,-28.75,-0.17041015625,0.80322265625,0.3828125
1969/12/31/18:00:38.766,87,1730343876,269976521,RU_myo,-0.5178490211347454,-0.2374720732157094,-0.5071075446798585,-0.6467467385933879,6.8125,-5.9375,-24.4375,-0.20751953125,0.822265625,0.390625
1969/12/31/18:00:38.790,88,1730343876,293985999,RU_myo,-0.5203644432600151,-0.2368677462223925,-0.5088292708724778,-0.6435893800348181,13.8125,-4.375,-20.625,-0.2314453125,0.7919921875,0.3779296875
1969/12/31/18:00:38.813,89,1730343876,316463421,RU_myo,-0.5218117152145701,-0.23771422581997087,-0.5108262054205792,-0.6405162515996391,19.9375,-5.8125,-12.4375,-0.240234375,0.79931640625,0.37060546875
1969/12/31/18:00:38.833,90,1730343876,337265370,RU_myo,-0.5226082198907611,-0.23911935134088544,-0.5130873881375253,-0.6375295416301402,21.375,-4.9375,-10.0,-0.24169921875,0.88623046875,0.37255859375
1969/12/31/18:00:38.842,91,1730343876,345739112,RU_myo,-0.5237207117522509,-0.2400412025779749,-0.5150540830296289,-0.6346779724404681,17.5625,-4.8125,-11.8125,-0.24658203125,0.9072265625,0.37109375
1969/12/31/18:00:38.865,92,1730343876,368874775,RU_myo,-0.5252947243744355,-0.24064564868228175,-0.5155907786122029,-0.6327094699186444,10.5,-7.5625,-9.0625,-0.23828125,0.818359375,0.36669921875
1969/12/31/18:00:38.886,93,1730343876,390028366,RU_myo,-0.5261516223540762,-0.24174534000052153,-0.5154711289180522,-0.6316748975019939,9.0625,-8.0,-0.875,-0.234375,0.7822265625,0.37255859375
1969/12/31/18:00:38.902,94,1730343876,405758857,RU_myo,-0.5259790373427534,-0.24358114853039323,-0.5156645261671993,-0.6309551274134816,9.1875,-7.1875,5.1875,-0.2568359375,0.87939453125,0.34716796875
1969/12/31/18:00:38.925,95,1730343876,428841925,RU_myo,-0.5261426730382905,-0.24430450297787693,-0.515706482678756,-0.6305045766336363,2.5625,-4.75,2.8125,-0.283203125,0.93896484375,0.34765625
1969/12/31/18:00:38.947,96,1730343876,451442871,RU_myo,-0.5268296406733429,-0.24486104244456114,-0.5155386903113679,-0.6298519337058502,3.8125,-5.75,-0.3125,-0.263671875,0.87548828125,0.36572265625
1969/12/31/18:00:38.962,97,1730343876,466361478,RU_myo,-0.5268852354600105,-0.24607914622666077,-0.5149840862749414,-0.629784402260147,6.875,-5.875,5.8125,-0.22509765625,0.7685546875,0.373046875
1969/12/31/18:00:38.985,98,1730343876,488848032,RU_myo,-0.5254278600388443,-0.24791357503517084,-0.5146861591018207,-0.6305256385249507,6.1875,-2.375,14.25,-0.224609375,0.822265625,0.3427734375
1969/12/31/18:00:39.007,99,1730343876,511413257,RU_myo,-0.523710574464686,-0.2494964256393936,-0.5148610192499815,-0.6311868967618905,4.9375,-0.1875,15.0,-0.26708984375,0.9287109375,0.33837890625
1969/12/31/18:00:39.022,100,1730343876,526264538,RU_myo,-0.522566595339106,-0.2511517799369798,-0.5151205401380582,-0.6312667946265327,7.875,-2.8125,12.0,-0.2685546875,0.91064453125,0.35205078125
1969/12/31/18:00:39.045,101,1730343876,548874769,RU_myo,-0.521265878269867,-0.2533397331340848,-0.5147965909385703,-0.6317320110023877,8.375,-4.3125,14.625,-0.22509765625,0.84765625,0.35498046875
1969/12/31/18:00:39.067,102,1730343876,571300322,RU_myo,-0.5193164353973109,-0.2557827219121083,-0.5141287638720116,-0.63289592608651,6.6875,-3.0,18.9375,-0.20947265625,0.87646484375,0.3642578125
1969/12/31/18:00:39.089,103,1730343876,592436631,RU_myo,-0.5174291069460544,-0.2580432017183201,-0.5137671882840158,-0.6338170884211812,5.9375,-2.4375,17.6875,-0.2158203125,0.9072265625,0.3427734375
1969/12/31/18:00:39.105,104,1730343876,609261801,RU_myo,-0.5159111328008867,-0.2600001686657728,-0.5131646521459666,-0.6347421958037646,2.25,-3.9375,16.25,-0.21044921875,0.8642578125,0.30712890625
1969/12/31/18:00:39.128,105,1730343876,631863476,RU_myo,-0.5138385004489556,-0.26293102030337345,-0.5120075044858402,-0.6361490307850654,3.125,-6.5,23.5,-0.197265625,0.83984375,0.302734375
1969/12/31/18:00:39.148,106,1730343876,652445441,RU_myo,-0.5112041794052752,-0.2666488848879712,-0.5105328272116914,-0.6379066479398204,3.8125,-7.875,28.0,-0.18505859375,0.923828125,0.32470703125
1969/12/31/18:00:39.165,107,1730343876,668860200,RU_myo,-0.5092976667663913,-0.2692655848739747,-0.5088704548230283,-0.6396583397697481,-1.5,-6.9375,24.25,-0.20849609375,0.95263671875,0.3330078125
1969/12/31/18:00:39.187,108,1730343876,691386261,RU_myo,-0.5082549318655329,-0.2716429757124744,-0.5064240423415216,-0.6414216299119537,-4.875,-11.375,23.375,-0.2080078125,0.8388671875,0.3212890625
1969/12/31/18:00:39.208,109,1730343876,712365114,RU_myo,-0.5064463957209304,-0.2761103270958652,-0.5029065197325219,-0.6437081387887025,-1.6875,-17.4375,31.6875,-0.13720703125,0.8154296875,0.33203125
1969/12/31/18:00:39.233,110,1730343876,736461219,RU_myo,-0.5036892083734854,-0.2812310520035164,-0.4994780663187453,-0.6463187588362064,-0.25,-15.75,34.9375,-0.1005859375,0.9609375,0.36962890625
1969/12/31/18:00:39.248,111,1730343876,751521137,RU_myo,-0.5015560100540211,-0.28465042965343806,-0.49642937281326444,-0.6488247679343268,-6.1875,-11.5,29.625,-0.13720703125,1.01416015625,0.361328125
1969/12/31/18:00:39.276,112,1730343876,779961995,RU_myo,-0.5003990183449744,-0.28782556049699953,-0.4929531493075202,-0.6509642553564455,-8.25,-15.0,25.8125,-0.12841796875,0.93798828125,0.34619140625
1969/12/31/18:00:39.285,113,1730343876,788831969,RU_myo,-0.4988705803287714,-0.2919741688638173,-0.4892276207383694,-0.6530969023853905,-3.0,-17.25,27.25,-0.06640625,0.8984375,0.37451171875
1969/12/31/18:00:39.307,114,1730343876,811361096,RU_myo,-0.49679370979307563,-0.29563497914467546,-0.4858691306710903,-0.6555357784873986,-4.75,-12.5,28.1875,-0.060546875,0.9443359375,0.369140625
1969/12/31/18:00:39.328,115,1730343876,832388595,RU_myo,-0.49508858801054006,-0.2980174525709402,-0.48300432513750174,-0.657859947012526,-10.5,-8.625,24.125,-0.09228515625,1.01318359375,0.34619140625
1969/12/31/18:00:39.345,116,1730343876,848807496,RU_myo,-0.4942355332655201,-0.30021543444468923,-0.48025925058858704,-0.65950965330541,-7.375,-10.8125,19.0625,-0.0859375,0.97998046875,0.37548828125
1969/12/31/18:00:39.367,117,1730343876,871464747,RU_myo,-0.4932580699414605,-0.3029002476020129,-0.4773898321061747,-0.6610952008915986,-4.9375,-12.0625,18.0625,-0.03759765625,0.951171875,0.384765625
1969/12/31/18:00:39.396,118,1730343876,899792743,RU_myo,-0.4927009474332081,-0.30442119729924955,-0.473781426350055,-0.6634038521737856,-14.0625,-9.8125,17.0625,-0.03515625,0.94970703125,0.38623046875
1969/12/31/18:00:39.405,119,1730343876,909386592,RU_myo,-0.49270533267071676,-0.306071750692883,-0.4701237678140135,-0.6652406944272033,-14.5,-13.25,15.8125,-0.05615234375,0.98193359375,0.388671875
1969/12/31/18:00:39.427,120,1730343876,931434444,RU_myo,-0.4928352787454964,-0.30809071047768,-0.46665245093350655,-0.6666550773668182,-11.1875,-14.9375,14.25,-0.04150390625,0.96923828125,0.39697265625
1969/12/31/18:00:39.449,121,1730343876,952528802,RU_myo,-0.4928350061326002,-0.30918911963687334,-0.46329542186409506,-0.668485674572182,-14.25,-9.6875,11.75,-0.00927734375,0.9814453125,0.41259765625
1969/12/31/18:00:39.465,122,1730343876,968946444,RU_myo,-0.4930567151262684,-0.3094191788204209,-0.4606500910722953,-0.6700420442345959,-12.8125,-5.75,7.6875,-0.02685546875,0.95849609375,0.41650390625
1969/12/31/18:00:39.487,123,1730343876,991380787,RU_myo,-0.4931434377819242,-0.3106559527611379,-0.45878208190677283,-0.670687281904154,-3.9375,-9.125,8.1875,-0.03466796875,0.9072265625,0.40380859375
1969/12/31/18:00:39.508,124,1730343877,12300361,RU_myo,-0.4928234273863442,-0.3127216398671985,-0.4573035221555266,-0.670972230425445,1.3125,-9.9375,8.5,-0.00732421875,0.91455078125,0.400390625
1969/12/31/18:00:39.525,125,1730343877,28884632,RU_myo,-0.4920399801715003,-0.31437582955388216,-0.45627522844978124,-0.6714740587753469,1.9375,-5.3125,8.375,0.0087890625,0.93115234375,0.41064453125
1969/12/31/18:00:39.547,126,1730343877,51410929,RU_myo,-0.4910682670631676,-0.3158436840730664,-0.4556693614086017,-0.6719078488812343,4.1875,-3.9375,9.125,-0.015625,0.935546875,0.4189453125
1969/12/31/18:00:39.568,127,1730343877,72428182,RU_myo,-0.49063327440264004,-0.31730344490848683,-0.45486873916194503,-0.6720803107005687,3.125,-6.375,7.8125,-0.0283203125,0.94677734375,0.4208984375
1969/12/31/18:00:39.585,128,1730343877,88954519,RU_myo,-0.4908781917293885,-0.3187076858399685,-0.45370986911802486,-0.6720203616974135,-5.125,-9.5625,4.6875,-0.01708984375,0.94140625,0.3291015625
1969/12/31/18:00:39.607,129,1730343877,111445119,RU_myo,-0.4926356404025561,-0.3198591911979431,-0.45082996477374654,-0.6721254097811385,-18.4375,-15.6875,-2.125,0.041015625,1.0419921875,0.3310546875
1969/12/31/18:00:39.628,130,1730343877,132430643,RU_myo,-0.49349577402793604,-0.321632788662778,-0.44961456434130653,-0.6714618483620273,2.6875,-11.0625,-4.125,0.07177734375,1.14990234375,0.517578125
1969/12/31/18:00:39.652,131,1730343877,156379345,RU_myo,-0.4959434160062671,-0.31962289805867844,-0.44687394683705245,-0.6724470289880693,-16.3125,-4.0,-8.25,0.009765625,0.9541015625,0.52294921875
1969/12/31/18:00:39.667,132,1730343877,171443177,RU_myo,-0.4983285750645146,-0.3165744419913824,-0.4438877803360949,-0.6741015445912509,-27.125,1.25,-9.4375,0.0234375,0.8662109375,0.40576171875
1969/12/31/18:00:39.696,133,1730343877,200017671,RU_myo,-0.49826487292534066,-0.31748822500705803,-0.445899456344015,-0.672389037851357,14.0625,1.0,-9.75,0.04052734375,0.94384765625,0.40283203125
1969/12/31/18:00:39.704,134,1730343877,208319829,RU_myo,-0.4982040237636647,-0.3176714374237259,-0.44876812283893497,-0.6704362613063649,19.125,5.6875,-13.75,0.0322265625,0.87890625,0.416015625
1969/12/31/18:00:39.727,135,1730343877,231428013,RU_myo,-0.4976009892931793,-0.31792021994703434,-0.450971876596014,-0.669286452666381,11.3125,6.6875,-8.75,0.046875,0.8896484375,0.349609375
1969/12/31/18:00:39.748,136,1730343877,252332075,RU_myo,-0.4980097856748859,-0.3168099016468545,-0.4526030110986463,-0.6684072515577636,-2.4375,6.4375,-10.6875,-0.01708984375,0.93505859375,0.28759765625
1969/12/31/18:00:39.772,137,1730343877,276346924,RU_myo,-0.5012543706814471,-0.3134594481699637,-0.4515134341046323,-0.6682984730259156,-30.4375,-0.625,-16.5625,-0.0810546875,0.9287109375,0.2294921875
1969/12/31/18:00:39.787,138,1730343877,291313669,RU_myo,-0.5068143209560919,-0.3098622720970711,-0.44694138636337444,-0.6688557494409696,-49.6875,-14.0,-19.0625,-0.06689453125,0.9853515625,0.27880859375
1969/12/31/18:00:39.808,139,1730343877,312383826,RU_myo,-0.51503678707766,-0.3043593384472438,-0.4386265420935114,-0.6706036516659946,-81.375,-21.375,-27.0,-0.0390625,1.1435546875,0.31884765625
1969/12/31/18:00:39.824,140,1730343877,328132155,RU_myo,-0.529504497932274,-0.29313163941548087,-0.4203201333863037,-0.676039802166413,-148.8125,-37.875,-36.125,-0.056640625,1.14697265625,0.216796875
1969/12/31/18:00:39.847,141,1730343877,351369841,RU_myo,-0.5490486973808915,-0.2774539104372535,-0.3907913305168795,-0.6847240257799267,-223.5625,-62.0,-37.3125,-0.072265625,1.0419921875,0.12841796875
1969/12/31/18:00:39.877,142,1730343877,381315257,RU_myo,-0.5709527849585558,-0.25865290247507855,-0.35471700547077784,-0.6937488302109999,-263.0625,-74.1875,-43.125,0.0,0.89013671875,0.1875
1969/12/31/18:00:39.884,143,1730343877,388144480,RU_myo,-0.594032012265702,-0.23967571274708843,-0.31602771596751306,-0.6998628464657151,-268.375,-87.9375,-55.0,0.0869140625,0.7041015625,0.2333984375
1969/12/31/18:00:39.907,144,1730343877,411343562,RU_myo,-0.6165352084989741,-0.22294625981456664,-0.27744694692499866,-0.7022837699661151,-250.125,-99.9375,-61.5625,0.154296875,0.48583984375,0.267578125
1969/12/31/18:00:39.930,145,1730343877,433846876,RU_myo,-0.6370988684785373,-0.21269178624846274,-0.241681341045599,-0.7003266132571334,-204.4375,-118.125,-62.125,0.162109375,0.31494140625,0.2998046875
1969/12/31/18:00:39.944,146,1730343877,448031668,RU_myo,-0.6540615571561498,-0.21238538946565283,-0.2104934506514473,-0.6948297870880625,-138.9375,-140.3125,-52.625,0.18994140625,0.17041015625,0.31787109375
1969/12/31/18:00:39.975,147,1730343877,478882912,RU_myo,-0.6673687741493493,-0.22263934962019444,-0.18364084512257814,-0.6865323585190699,-73.5,-164.1875,-41.5625,0.27978515625,0.13525390625,0.34765625
1969/12/31/18:00:39.990,148,1730343877,493864586,RU_myo,-0.6767636646481988,-0.24180157266986776,-0.15947186001675023,-0.6768246948280751,-22.0625,-185.25,-26.4375,0.40087890625,0.1884765625,0.41650390625
1969/12/31/18:00:40.011,149,1730343877,514847811,RU_myo,-0.6824519586587423,-0.2682325485874774,-0.13707629217917502,-0.6659735085748699,18.625,-204.625,-12.625,0.470703125,0.28076171875,0.5146484375
1969/12/31/18:00:40.027,150,1730343877,531368677,RU_myo,-0.6839515503116477,-0.3002282416547381,-0.11480571712798585,-0.654899173196857,46.5625,-222.25,6.6875,0.50927734375,0.30224609375,0.40478515625
1969/12/31/18:00:40.065,151,1730343877,569453574,RU_myo,-0.6809216692354658,-0.3380501143582724,-0.0874572691596686,-0.6437538556149228,57.3125,-260.0,35.1875,0.6162109375,0.283203125,0.26416015625
1969/12/31/18:00:40.071,152,1730343877,574872675,RU_myo,-0.6738911397961764,-0.3826568960806037,-0.05181430698124921,-0.6298886482373064,62.0,-321.125,58.75,0.677734375,0.330078125,0.28271484375
1969/12/31/18:00:40.087,153,1730343877,591306618,RU_myo,-0.6651161396204519,-0.4278885350411991,-0.01373198122725286,-0.6118360524587108,62.4375,-344.125,55.5,0.728515625,0.42041015625,0.478515625
1969/12/31/18:00:40.110,154,1730343877,613852710,RU_myo,-0.6551716560472601,-0.46988044526388967,0.0224595407010146,-0.5911497587772484,59.75,-331.4375,42.875,0.90576171875,0.39306640625,0.41357421875
1969/12/31/18:00:40.131,155,1730343877,634857813,RU_myo,-0.641009410159272,-0.5065579457604453,0.0633502587589569,-0.5731428516429329,36.875,-325.125,79.9375,1.0830078125,0.4296875,0.50390625
1969/12/31/18:00:40.147,156,1730343877,651290192,RU_myo,-0.6252763276223857,-0.5408686008188953,0.11022440680195496,-0.551671325073572,10.75,-353.0625,95.0,1.0703125,0.65966796875,0.52587890625
1969/12/31/18:00:40.170,157,1730343877,673916695,RU_myo,-0.6122259108857945,-0.5711504410397034,0.15990747547809606,-0.5228730314583393,-25.0625,-374.75,73.375,0.99365234375,0.70166015625,0.55078125
1969/12/31/18:00:40.192,158,1730343877,696395089,RU_myo,-0.6015559328718527,-0.5928280008100959,0.2108131282608948,-0.49218212689515217,-67.4375,-357.9375,71.6875,1.1845703125,0.73681640625,0.56103515625
1969/12/31/18:00:40.207,159,1730343877,711323955,RU_myo,-0.5931153076860498,-0.6057490665552628,0.2556047446582812,-0.4647026088414883,-83.8125,-299.5625,65.375,1.50439453125,0.77978515625,0.53173828125
1969/12/31/18:00:40.230,160,1730343877,733923104,RU_myo,-0.5887316204128306,-0.6144878658839289,0.2905206835128627,-0.4374899704664285,-84.125,-249.6875,24.125,1.53369140625,0.58935546875,0.5771484375
1969/12/31/18:00:40.251,161,1730343877,754972618,RU_myo,-0.5858503566248212,-0.6234463374229138,0.3149273716203852,-0.4109924264518748,-59.1875,-213.3125,-13.375,1.45703125,0.607421875,0.7001953125
1969/12/31/18:00:40.268,162,1730343877,771784982,RU_myo,-0.5816961857327478,-0.6327189547257787,0.3287184614790242,-0.39145937837476075,-16.0625,-156.3125,-24.0,1.36767578125,0.68115234375,0.6826171875
1969/12/31/18:00:40.290,163,1730343877,793798288,RU_myo,-0.5793248104216143,-0.6401136337654753,0.3350098908980448,-0.377366761782221,-2.5,-102.4375,-33.4375,1.20703125,0.64404296875,0.55615234375
1969/12/31/18:00:40.311,164,1730343877,814932598,RU_myo,-0.5815574125814974,-0.6427707702076116,0.3357885280746562,-0.36862281162684907,1.8125,-70.9375,-42.1875,1.06005859375,0.509765625,0.50341796875
1969/12/31/18:00:40.327,165,1730343877,831378804,RU_myo,-0.5818325897091395,-0.6463450251777811,0.33214444070042354,-0.36522461101641573,30.5625,-40.3125,-44.1875,1.0166015625,0.40576171875,0.47412109375
1969/12/31/18:00:40.333,166,1730343877,836721681,RU_myo,-0.5801005403633349,-0.6507135151345479,0.32462438444950853,-0.36697996309360686,55.875,-9.5625,-43.125,1.01416015625,0.3447265625,0.4052734375
1969/12/31/18:00:40.355,167,1730343877,859201927,RU_myo,-0.5764583208121581,-0.6558014459636462,0.3164570030080508,-0.37077652715022347,63.8125,7.4375,-34.5,0.93310546875,0.3271484375,0.2109375
1969/12/31/18:00:40.395,168,1730343877,898705962,RU_myo,-0.5701077638662498,-0.6618401232593527,0.309558567426359,-0.375657133775481,69.8125,11.1875,-18.625,0.84619140625,0.330078125,0.02685546875
1969/12/31/18:00:40.397,169,1730343877,901101069,RU_myo,-0.5625967961413056,-0.6670232572172196,0.3049789748663598,-0.3815136225514539,65.4375,11.0,-5.625,0.818359375,0.26025390625,-0.04248046875
1969/12/31/18:00:40.416,170,1730343877,919366607,RU_myo,-0.5535820411694822,-0.6730874035299944,0.30236443571704685,-0.38610363753452526,62.375,3.625,0.9375,0.8388671875,0.28515625,-0.19677734375
1969/12/31/18:00:40.438,171,1730343877,941700063,RU_myo,-0.5429963469645499,-0.6801338980075244,0.2998472577989023,-0.39072300924660547,70.6875,0.3125,6.75,0.91943359375,0.38525390625,-0.248046875
1969/12/31/18:00:40.453,172,1730343877,956728606,RU_myo,-0.5325700682840322,-0.6867383002901594,0.29796092979173106,-0.39494165847650387,69.375,-5.6875,14.75,0.88720703125,0.4599609375,-0.208984375
1969/12/31/18:00:40.475,173,1730343877,979134690,RU_myo,-0.5243937638769262,-0.6907691596321055,0.29875552539310446,-0.39823897920122714,47.5625,-10.9375,26.4375,0.87109375,0.51806640625,-0.15625
1969/12/31/18:00:40.498,174,1730343878,1676247,RU_myo,-0.5191072430735266,-0.6918378130791798,0.3021259086671319,-0.4007593366279572,19.5625,-7.875,36.5,0.90625,0.5849609375,-0.20849609375
1969/12/31/18:00:40.513,175,1730343878,16702485,RU_myo,-0.5160153448865108,-0.6934318567238954,0.3030789122065538,-0.40127745625414646,14.625,-3.875,24.5,0.93896484375,0.74951171875,-0.2578125
1969/12/31/18:00:40.535,176,1730343878,39145796,RU_myo,-0.5153041322175687,-0.6956575268288343,0.30003969133975694,-0.4006225658979179,17.25,1.1875,-2.125,0.91943359375,0.73828125,-0.17333984375
1969/12/31/18:00:40.558,177,1730343878,61684503,RU_myo,-0.5165874430899561,-0.6965141659431213,0.2970499864743403,-0.399708313421092,4.625,4.5,-10.75,0.90966796875,0.642578125,-0.140625
1969/12/31/18:00:40.580,178,1730343878,84232375,RU_myo,-0.5164073810591853,-0.6970065348890079,0.2957089896267288,-0.40007686831851547,4.75,5.125,-5.5,0.9248046875,0.5029296875,-0.17578125
1969/12/31/18:00:40.598,179,1730343878,102097672,RU_myo,-0.5148740605926855,-0.6974846804709827,0.2952774662336904,-0.40153585166421024,7.9375,6.875,-2.375,0.91796875,0.38818359375,-0.21240234375
1969/12/31/18:00:40.618,180,1730343878,121653417,RU_myo,-0.5110823009841893,-0.6999764640539369,0.2944795918615612,-0.4026283663234651,20.0625,1.625,-6.1875,0.8740234375,0.3076171875,-0.2763671875
1969/12/31/18:00:40.633,181,1730343878,136699828,RU_myo,-0.5058382645702721,-0.7037670160183166,0.29332271953725,-0.40348657903885965,31.625,-4.3125,-3.8125,0.83740234375,0.33642578125,-0.2607421875
1969/12/31/18:00:40.655,182,1730343878,159156835,RU_myo,-0.5006563934814826,-0.7073762770267443,0.2936923766223204,-0.4033692678921271,26.6875,-12.75,6.0625,0.8369140625,0.43798828125,-0.26416015625
1969/12/31/18:00:40.678,183,1730343878,181721597,RU_myo,-0.4962510726082416,-0.7101071491571628,0.2960051287848938,-0.4023228472061897,15.75,-18.9375,13.0625,0.875,0.49169921875,-0.27978515625
1969/12/31/18:00:40.694,184,1730343878,198163537,RU_myo,-0.49362568227391634,-0.7115704537131047,0.2984457945498826,-0.40116241463729624,6.1875,-16.8125,12.4375,0.8818359375,0.509765625,-0.2431640625
1969/12/31/18:00:40.715,185,1730343878,219144681,RU_myo,-0.4939861527721551,-0.7112570576237578,0.3011277091398336,-0.39926580324134403,-10.25,-14.8125,10.1875,0.8837890625,0.55712890625,-0.1796875
1969/12/31/18:00:40.738,186,1730343878,241653708,RU_myo,-0.4958358789050064,-0.7097581777186509,0.3042518286978652,-0.3972668310921574,-19.5,-13.6875,9.8125,0.86181640625,0.52978515625,-0.13916015625
1969/12/31/18:00:40.760,187,1730343878,264133315,RU_myo,-0.49534447434622514,-0.7093874846385134,0.30717948982066917,-0.3962877860929078,-6.5,-15.125,8.3125,0.87890625,0.4248046875,-0.1533203125
1969/12/31/18:00:40.775,188,1730343878,279188243,RU_myo,-0.4924088528244365,-0.7103553096211721,0.30918979281217096,-0.39664912425706655,9.6875,-12.8125,7.25,0.921875,0.37109375,-0.1943359375
1969/12/31/18:00:40.793,189,1730343878,297220098,RU_myo,-0.48906393240304286,-0.7120814800132661,0.310356932019153,-0.396780809253985,14.5625,-11.125,7.0625,0.88525390625,0.4150390625,-0.234375
1969/12/31/18:00:40.813,190,1730343878,316691673,RU_myo,-0.4866771778776462,-0.7134758225971513,0.31114625693757714,-0.39659246323663716,11.25,-9.1875,6.875,0.85107421875,0.4609375,-0.22802734375
1969/12/31/18:00:40.835,191,1730343878,339190844,RU_myo,-0.4856481592236822,-0.7139156112152081,0.31243344565364195,-0.3960501326131047,1.25,-8.0,5.875,0.87158203125,0.455078125,-0.2265625
1969/12/31/18:00:40.853,192,1730343878,357229651,RU_myo,-0.4850180825997876,-0.7138255309031226,0.3142516807985789,-0.3955457648583394,-4.125,-6.5,5.0,0.91357421875,0.42138671875,-0.25244140625
1969/12/31/18:00:40.873,193,1730343878,376674224,RU_myo,-0.4837618136588359,-0.7141681783525157,0.31561094353139546,-0.3953834252942139,0.8125,-5.125,4.125,0.9150390625,0.41357421875,-0.26953125
1969/12/31/18:00:40.903,194,1730343878,406701796,RU_myo,-0.48221543765182584,-0.7150532929412469,0.3161468126865533,-0.395244548061413,6.5,-5.4375,4.1875,0.85693359375,0.44287109375,-0.24560546875
1969/12/31/18:00:40.919,195,1730343878,423135984,RU_myo,-0.48057512516780276,-0.716346233692469,0.3163959167983096,-0.3947014648793727,8.8125,-7.9375,2.5,0.82421875,0.4404296875,-0.22900390625
1969/12/31/18:00:40.933,196,1730343878,436715723,RU_myo,-0.4783018314565549,-0.7179104814882551,0.3166911067280928,-0.3943838758290491,11.1875,-8.1875,1.3125,0.86767578125,0.41845703125,-0.2568359375
1969/12/31/18:00:40.955,197,1730343878,459147310,RU_myo,-0.47599303589609004,-0.7192078388254296,0.3167590532505074,-0.39475868139196185,12.0625,-3.9375,2.125,0.88330078125,0.40380859375,-0.26708984375
