time,.header.seq,.header.stamp.secs,.header.stamp.nsecs,.header.frame_id,.orientation.x,.orientation.y,.orientation.z,.orientation.w,.angular_velocity.x,.angular_velocity.y,.angular_velocity.z,.linear_acceleration.x,.linear_acceleration.y,.linear_acceleration.z
1969/12/31/18:00:17.893,1,1730346909,668969773,RU_myo,0.3382460115258798,-0.3405042400402172,-0.6948019839788191,-0.5356273903195816,-2.8125,-0.625,1.5,0.8134765625,0.509765625,-0.2138671875
1969/12/31/18:00:17.902,2,1730346909,677852840,RU_myo,0.33799342812217786,-0.3408008852716218,-0.6946015177787119,-0.5358581254808092,-3.0625,-0.75,0.8125,0.822265625,0.51025390625,-0.2001953125
1969/12/31/18:00:17.925,3,1730346909,700388225,RU_myo,0.3378689742241716,-0.34104259898205763,-0.6941693845422197,-0.5363425840827349,-4.0,0.0625,-0.1875,0.82421875,0.501953125,-0.189453125
1969/12/31/18:00:17.947,4,1730346909,723020619,RU_myo,0.3378808626304841,-0.3411766658425589,-0.693705542748931,-0.5368497232112966,-4.0625,1.875,-0.5,0.83642578125,0.5,-0.20166015625
1969/12/31/18:00:17.963,5,1730346909,738050541,RU_myo,0.33769453019718765,-0.3412344330982245,-0.6933937389427524,-0.5373328472539383,-4.375,2.0,-1.5,0.83349609375,0.49951171875,-0.216796875
1969/12/31/18:00:17.991,6,1730346909,766397505,RU_myo,0.3372589299751784,-0.3415311205467062,-0.6929493107018053,-0.537990855543105,-6.9375,1.6875,-1.3125,0.8369140625,0.50439453125,-0.2333984375
1969/12/31/18:00:18.007,7,1730346909,783013401,RU_myo,0.33652550840738443,-0.3412859345328425,-0.6927640634624992,-0.5388436187393538,-6.0,1.8125,-4.375,0.82958984375,0.5146484375,-0.22314453125
1969/12/31/18:00:18.022,8,1730346909,797223167,RU_myo,0.3356108000201776,-0.341408768014707,-0.6923384097888516,-0.5398823671537537,-9.0,0.6875,-3.8125,0.81201171875,0.5,-0.22119140625
1969/12/31/18:00:18.045,9,1730346909,820497536,RU_myo,0.3328740412583601,-0.341540728801207,-0.6927246733191029,-0.5409966083084166,-11.3125,-4.5625,-7.875,0.78857421875,0.5517578125,-0.27294921875
1969/12/31/18:00:18.067,10,1730346909,842948709,RU_myo,0.3290876838449004,-0.339097027344634,-0.695588340649171,-0.5411759073910852,0.125,-1.5625,-19.6875,0.79541015625,0.63720703125,-0.38134765625
1969/12/31/18:00:18.089,11,1730346909,864051944,RU_myo,0.33157721241944527,-0.3355441770443788,-0.6964769276883322,-0.5407277934909415,16.625,14.6875,-15.0,1.005859375,0.51953125,-0.1748046875
1969/12/31/18:00:18.105,12,1730346909,880539748,RU_myo,0.3423335955786699,-0.32976081599421525,-0.693822127747962,-0.5409957195951738,31.5625,46.75,0.625,1.1884765625,0.5107421875,0.08056640625
1969/12/31/18:00:18.133,13,1730346909,908916379,RU_myo,0.3542947606192968,-0.3193230297261259,-0.6883266684348716,-0.546547731497985,22.0,73.5,-1.5,1.138671875,0.77978515625,0.2529296875
1969/12/31/18:00:18.149,14,1730346909,924003440,RU_myo,0.3620581939501054,-0.30877484881887785,-0.6790727353150494,-0.5589563284212855,-24.75,82.625,-5.1875,1.1142578125,1.05810546875,0.23095703125
1969/12/31/18:00:18.165,15,1730346909,940440263,RU_myo,0.36601397768541577,-0.30125812803988866,-0.6635491021170319,-0.5787744789712853,-100.4375,101.0625,-25.9375,1.09814453125,1.0126953125,0.310546875
1969/12/31/18:00:18.187,16,1730346909,963000596,RU_myo,0.3670468723989068,-0.29100091247056664,-0.6443766010621315,-0.6044616269103381,-135.25,118.875,-54.3125,0.994140625,0.83203125,0.2685546875
1969/12/31/18:00:18.216,17,1730346909,991509596,RU_myo,0.3683308920096217,-0.2764160082703524,-0.6246672211629625,-0.6306484021765404,-129.1875,136.25,-70.875,0.869140625,0.677734375,0.37548828125
1969/12/31/18:00:18.225,18,1730346910,623505,RU_myo,0.37412731655656717,-0.257067578684545,-0.6004957043393253,-0.6582931870112778,-133.4375,181.375,-69.625,0.8857421875,0.5888671875,0.44921875
1969/12/31/18:00:18.247,19,1730346910,22969452,RU_myo,0.38486464086733935,-0.23265207912881344,-0.5694849292631056,-0.6880691343384687,-148.4375,235.8125,-62.1875,0.8759765625,0.677734375,0.5693359375
1969/12/31/18:00:18.269,20,1730346910,43975245,RU_myo,0.39896063707375845,-0.20524776234955633,-0.5326798899158274,-0.7176042788302359,-160.125,273.125,-51.875,0.89404296875,0.6025390625,0.5771484375
1969/12/31/18:00:18.285,21,1730346910,60403676,RU_myo,0.41514077956278417,-0.17809185456692211,-0.49283472434129405,-0.7436769184023119,-160.1875,283.1875,-33.8125,0.9765625,0.4619140625,0.630859375
1969/12/31/18:00:18.307,22,1730346910,82867219,RU_myo,0.4328515653675476,-0.15020413174979338,-0.45384718557150083,-0.764264988935763,-137.75,286.0,-19.125,1.0400390625,0.3603515625,0.61865234375
1969/12/31/18:00:18.328,23,1730346910,103869034,RU_myo,0.45110045795679105,-0.12054165937825224,-0.4189967046236464,-0.7787296364593015,-99.0,281.3125,-9.8125,1.00390625,0.29296875,0.603515625
1969/12/31/18:00:18.345,24,1730346910,120195344,RU_myo,0.46966978427679734,-0.08905110009874559,-0.3892857549210414,-0.7873606520039877,-57.0,274.3125,-1.125,0.94921875,0.25634765625,0.5712890625
1969/12/31/18:00:18.367,25,1730346910,142777126,RU_myo,0.488336417378295,-0.057555460765870786,-0.3652299864506583,-0.7904568105819645,-20.3125,256.875,12.5,0.86083984375,0.28955078125,0.5361328125
1969/12/31/18:00:18.388,26,1730346910,163912701,RU_myo,0.507790680081952,-0.02667121721103522,-0.3467258237434579,-0.7881741397329722,13.625,238.5625,31.3125,0.76513671875,0.32958984375,0.494140625
1969/12/31/18:00:18.405,27,1730346910,180306455,RU_myo,0.5258678830133223,0.005065811779260185,-0.33318393377085964,-0.7825763690804107,43.375,225.3125,32.375,0.7431640625,0.39111328125,0.4033203125
1969/12/31/18:00:18.427,28,1730346910,202791765,RU_myo,0.5426030484439149,0.037109409837334115,-0.32177764582635765,-0.7750251416356391,58.875,216.1875,32.6875,0.58984375,0.3369140625,0.4833984375
1969/12/31/18:00:18.449,29,1730346910,223973265,RU_myo,0.5590073592400474,0.06847977476442113,-0.31420131950734403,-0.7642635825312668,79.375,200.5,44.0625,0.50146484375,0.41015625,0.48046875
1969/12/31/18:00:18.465,30,1730346910,240256762,RU_myo,0.5754968726172046,0.10058530555447588,-0.3068828375776121,-0.7513380530191737,85.1875,203.8125,49.625,0.4697265625,0.43603515625,0.38037109375
1969/12/31/18:00:18.487,31,1730346910,262804704,RU_myo,0.5910536894960241,0.131833536690563,-0.2993109555233893,-0.7373522947956906,84.5625,198.9375,51.25,0.39306640625,0.4765625,0.48828125
1969/12/31/18:00:18.508,32,1730346910,283866471,RU_myo,0.604487384235606,0.16058222010539977,-0.295896086305959,-0.7219791264259878,98.125,169.8125,56.0,0.23779296875,0.58642578125,0.61376953125
1969/12/31/18:00:18.524,33,1730346910,299578241,RU_myo,0.6164551447227603,0.18682863346498707,-0.29260257067335776,-0.7067261505687963,87.25,155.9375,53.9375,0.16650390625,0.646484375,0.34130859375
1969/12/31/18:00:18.547,34,1730346910,322815054,RU_myo,0.6275624888206166,0.20739713450811664,-0.28454545058176567,-0.6943958797230262,44.8125,144.8125,45.0,0.1337890625,0.595703125,0.3330078125
1969/12/31/18:00:18.568,35,1730346910,343948911,RU_myo,0.6375074204378492,0.22570631314305087,-0.280942714818135,-0.6809641254021143,61.875,119.1875,52.1875,0.14111328125,0.5205078125,0.6025390625
1969/12/31/18:00:18.584,36,1730346910,359676781,RU_myo,0.6450254400254112,0.24579082579318043,-0.2821681121534326,-0.6662658689740147,88.0625,107.25,50.625,0.17919921875,0.68212890625,0.37451171875
1969/12/31/18:00:18.607,37,1730346910,382891284,RU_myo,0.650702425758476,0.26538356131674834,-0.2819242570657913,-0.6532048926430176,82.3125,104.6875,36.8125,0.123046875,0.6064453125,0.41357421875
1969/12/31/18:00:18.628,38,1730346910,403881549,RU_myo,0.6547758543119427,0.285457370490022,-0.2852132333333061,-0.6390900419929485,104.375,91.5625,39.6875,0.07958984375,0.53662109375,0.54443359375
1969/12/31/18:00:18.644,39,1730346910,419736559,RU_myo,0.6575957253747717,0.30517715118561894,-0.29120003766131763,-0.624209345035065,111.375,79.1875,43.0625,0.04296875,0.73974609375,0.2978515625
1969/12/31/18:00:18.667,40,1730346910,442867027,RU_myo,0.6584946347939066,0.32402891983694965,-0.2968688389690946,-0.6109492348027625,86.0,67.125,36.0,-0.0810546875,0.86669921875,0.2080078125
1969/12/31/18:00:18.689,41,1730346910,463973637,RU_myo,0.6588874964013726,0.33673759311221607,-0.3003599230932056,-0.6018795370091649,60.3125,44.5625,25.6875,-0.103515625,0.837890625,0.35693359375
1969/12/31/18:00:18.704,42,1730346910,479796491,RU_myo,0.660008227155084,0.34416371305044563,-0.3036379628348939,-0.5947642106182998,35.625,28.6875,24.4375,-0.0087890625,0.85693359375,0.36767578125
1969/12/31/18:00:18.733,43,1730346910,508970477,RU_myo,0.662004394153732,0.3475431514209248,-0.30524469621637595,-0.5897369035878074,8.0,18.9375,22.5625,0.001953125,0.8857421875,0.35693359375
1969/12/31/18:00:18.748,44,1730346910,523941260,RU_myo,0.6645949464571104,0.3466098540664827,-0.3046187324609641,-0.587692601656306,-19.3125,7.3125,17.6875,-0.01416015625,0.92138671875,0.4365234375
1969/12/31/18:00:18.771,45,1730346910,546572558,RU_myo,0.6688888697565305,0.3413719726752692,-0.30285852465844554,-0.5867960209726512,-28.875,0.125,20.875,0.05029296875,0.75146484375,0.6103515625
1969/12/31/18:00:18.787,46,1730346910,562860522,RU_myo,0.6729065638823895,0.3370331107263995,-0.30273166048586414,-0.5847725885312629,-16.3125,0.5625,23.6875,0.09716796875,0.73486328125,0.62841796875
1969/12/31/18:00:18.808,47,1730346910,583964103,RU_myo,0.675183356605538,0.33624888008858334,-0.30273996101640466,-0.58259131610919,-3.1875,5.8125,16.375,0.0302734375,0.83447265625,0.6142578125
1969/12/31/18:00:18.831,48,1730346910,606565032,RU_myo,0.675536529305938,0.338744826314416,-0.3035275713984848,-0.580321767314859,13.75,8.8125,9.5,-0.017578125,0.8779296875,0.6044921875
1969/12/31/18:00:18.848,49,1730346910,623071096,RU_myo,0.6753967954366568,0.3417266092219267,-0.30425203553693597,-0.5783535183045146,16.1875,8.875,5.4375,-0.02392578125,0.85205078125,0.58642578125
1969/12/31/18:00:18.870,50,1730346910,645454574,RU_myo,0.6745133370549022,0.34455051919961294,-0.3060975826016048,-0.5767330125628243,22.75,3.4375,2.4375,0.005859375,0.75,0.54736328125
1969/12/31/18:00:18.891,51,1730346910,666546959,RU_myo,0.673167175589148,0.347356459903694,-0.3100023651117311,-0.5745328337855335,27.75,-1.9375,4.3125,0.0625,0.84765625,0.537109375
1969/12/31/18:00:18.907,52,1730346910,682826803,RU_myo,0.6721198542202269,0.34924353485725923,-0.3135379305420728,-0.5726934791271694,21.1875,-4.6875,6.125,0.04345703125,0.91455078125,0.56689453125
1969/12/31/18:00:18.930,53,1730346910,705565686,RU_myo,0.6717615458735648,0.34943075141978547,-0.3146402661255885,-0.5723950369982093,6.375,-3.8125,2.0,0.021484375,0.88427734375,0.609375
1969/12/31/18:00:18.951,54,1730346910,726346490,RU_myo,0.6714374411280821,0.34954297112449106,-0.31457036374639896,-0.5727451093124191,5.125,-0.125,-4.0,0.041015625,0.7861328125,0.61181640625
1969/12/31/18:00:18.967,55,1730346910,742721713,RU_myo,0.6702963499704198,0.35095647535329755,-0.3150673610041256,-0.5729440755028529,10.625,0.5,-6.5,0.029296875,0.82861328125,0.58349609375
1969/12/31/18:00:18.990,56,1730346910,765290419,RU_myo,0.668953480230333,0.3525433669535039,-0.31537250295165425,-0.5733712585112909,9.875,0.25,-7.3125,0.0009765625,0.8134765625,0.5537109375
1969/12/31/18:00:19.004,57,1730346910,779630308,RU_myo,0.6672905135543162,0.354366479620997,-0.31609782947935644,-0.5737856140056825,12.75,-0.75,-8.75,0.0107421875,0.77880859375,0.5244140625
1969/12/31/18:00:19.027,58,1730346910,802861597,RU_myo,0.6652689863936463,0.3570480339819111,-0.3176811994659568,-0.5735961407456411,23.3125,-0.625,-7.875,0.01708984375,0.75439453125,0.5458984375
1969/12/31/18:00:19.050,59,1730346910,825364046,RU_myo,0.6630387456694355,0.36048115915711004,-0.32050229711039363,-0.5724606826506156,32.1875,0.0625,-5.625,0.04541015625,0.794921875,0.5615234375
1969/12/31/18:00:19.071,60,1730346910,846454546,RU_myo,0.6610248106529201,0.3637162369972992,-0.32306595778263214,-0.5713012213953215,28.0625,0.4375,-3.9375,0.0322265625,0.84716796875,0.53759765625
1969/12/31/18:00:19.087,61,1730346910,862913002,RU_myo,0.6595026817463876,0.36615979526113646,-0.3245937308215909,-0.5706330931649216,15.25,0.3125,-3.0625,-0.0029296875,0.8857421875,0.484375
1969/12/31/18:00:19.110,62,1730346910,885259575,RU_myo,0.6582742488421959,0.3673762358628815,-0.3246509716821177,-0.5712367820968114,3.6875,-0.625,-7.375,-0.01513671875,0.84716796875,0.4775390625
1969/12/31/18:00:19.131,63,1730346910,906451524,RU_myo,0.6569349361873527,0.3681106197292506,-0.3245916557320767,-0.572338464798737,5.125,-3.0,-8.5625,-0.01806640625,0.783203125,0.50537109375
1969/12/31/18:00:19.147,64,1730346910,922862113,RU_myo,0.6555667505164474,0.36913394536109057,-0.32537253021163587,-0.5728045762589014,11.0625,-3.0,-7.0,0.009765625,0.79248046875,0.51806640625
1969/12/31/18:00:19.170,65,1730346910,945295660,RU_myo,0.6540054148513429,0.3707353140277234,-0.3265449341534936,-0.5728879910214376,13.1875,-2.25,-6.0625,0.0029296875,0.841796875,0.5029296875
1969/12/31/18:00:19.184,66,1730346910,959628455,RU_myo,0.6525269539182769,0.3719482983049274,-0.3269653813619127,-0.573547449814802,6.875,-1.875,-8.125,-0.00537109375,0.8525390625,0.4931640625
1969/12/31/18:00:19.207,67,1730346910,982946423,RU_myo,0.651685543494648,0.3725661288275107,-0.32727712692875366,-0.573925181743952,9.0625,-1.25,-5.6875,0.01220703125,0.7861328125,0.5380859375
1969/12/31/18:00:19.230,68,1730346911,5433037,RU_myo,0.6509590374385091,0.37372922515105406,-0.3285618845317857,-0.573259004184011,14.5625,-0.125,-0.5625,0.0224609375,0.81982421875,0.5322265625
1969/12/31/18:00:19.244,69,1730346911,19648224,RU_myo,0.6501477425995436,0.37567211375330367,-0.32946841105448144,-0.5723888030509313,13.375,3.3125,-1.0,-0.005859375,0.869140625,0.4990234375
1969/12/31/18:00:19.267,70,1730346911,42867510,RU_myo,0.6492943360185146,0.3773817333711671,-0.3294079273822075,-0.5722676907792436,8.6875,4.0625,-4.625,-0.0224609375,0.86962890625,0.50732421875
1969/12/31/18:00:19.290,71,1730346911,65386976,RU_myo,0.6486258078253441,0.378787217781508,-0.3295314516278378,-0.572026072357121,12.0625,4.0,-5.0625,0.02001953125,0.82470703125,0.54345703125
1969/12/31/18:00:19.311,72,1730346911,86375372,RU_myo,0.6480633825263721,0.3806716252417576,-0.3300740980130552,-0.5710989894800587,14.9375,6.0625,-2.75,0.0224609375,0.8408203125,0.52685546875
1969/12/31/18:00:19.327,73,1730346911,102879477,RU_myo,0.6474004100182642,0.38324004662059785,-0.33007838383885857,-0.5701298416122002,13.375,9.0625,-3.1875,-0.013671875,0.87255859375,0.5009765625
1969/12/31/18:00:19.350,74,1730346911,125307246,RU_myo,0.6464870302133802,0.38568273639712514,-0.32965223283444733,-0.5697655237010861,13.875,7.75,-5.5625,-0.04296875,0.84619140625,0.52685546875
1969/12/31/18:00:19.371,75,1730346911,146498781,RU_myo,0.6448516526835374,0.38874208953539513,-0.3300859193291595,-0.5692883449672838,18.75,5.9375,-7.75,-0.02978515625,0.89404296875,0.5126953125
1969/12/31/18:00:19.387,76,1730346911,162268996,RU_myo,0.6427722872293137,0.3923407332931373,-0.3302058754069497,-0.5691015863760441,16.3125,7.1875,-11.5,-0.0419921875,0.96142578125,0.48095703125
1969/12/31/18:00:19.410,77,1730346911,185285414,RU_myo,0.6410546831695277,0.3959365638123133,-0.32873660130925225,-0.5693991373215771,15.75,11.5,-14.125,-0.07421875,0.88037109375,0.53271484375
1969/12/31/18:00:19.431,78,1730346911,206422933,RU_myo,0.63926867857212,0.39971076723017124,-0.32872838483763966,-0.5687745670816866,27.4375,10.0625,-9.1875,-0.0498046875,0.734375,0.51953125
1969/12/31/18:00:19.447,79,1730346911,222842198,RU_myo,0.6363537670357874,0.40527421955856785,-0.330811185242084,-0.5668956251897558,33.75,8.875,-7.5,-0.052734375,0.8916015625,0.396484375
1969/12/31/18:00:19.470,80,1730346911,245315269,RU_myo,0.6332385878270035,0.4105217100457278,-0.33105408196372693,-0.5664662490238477,18.8125,8.1875,-13.0625,-0.12890625,1.0322265625,0.36669921875
1969/12/31/18:00:19.491,81,1730346911,266365559,RU_myo,0.6308078759823357,0.4135194349085945,-0.32880135732141674,-0.5683069311341584,-0.9375,5.375,-19.0,-0.16455078125,0.95654296875,0.36376953125
1969/12/31/18:00:19.507,82,1730346911,282144185,RU_myo,0.6295688582218905,0.4139956922267652,-0.3251907781489319,-0.5714031653585399,-16.125,2.5,-20.125,-0.13916015625,0.94287109375,0.423828125
1969/12/31/18:00:19.530,83,1730346911,305311223,RU_myo,0.6283695579732512,0.4142539281169943,-0.3204410081942272,-0.5752068688042662,-18.8125,4.6875,-25.5625,-0.1416015625,0.9736328125,0.49267578125
1969/12/31/18:00:19.551,84,1730346911,326267576,RU_myo,0.6271254570625548,0.4146046939003343,-0.3142646207703255,-0.5797019553459996,-17.9375,10.1875,-34.1875,-0.11572265625,0.9189453125,0.58056640625
1969/12/31/18:00:19.567,85,1730346911,342186682,RU_myo,0.626167825323151,0.4156548289746231,-0.30768223096344716,-0.5835036953006456,-8.25,19.375,-36.9375,-0.0537109375,0.828125,0.6708984375
1969/12/31/18:00:19.590,86,1730346911,365352793,RU_myo,0.6257975157983906,0.4187649230364535,-0.3009052719093012,-0.5852088736442962,-2.875,32.4375,-31.625,-0.07177734375,0.87353515625,0.6416015625
1969/12/31/18:00:19.611,87,1730346911,386552165,RU_myo,0.6257861579767092,0.42333490604959084,-0.2927822295732248,-0.5860527347012935,-6.5,42.375,-28.5,-0.16845703125,0.91015625,0.5830078125
1969/12/31/18:00:19.627,88,1730346911,402236529,RU_myo,0.6265331400777906,0.42725104535260927,-0.28247397684169656,-0.5874701873598378,-18.875,46.125,-29.125,-0.23095703125,0.873046875,0.57568359375
1969/12/31/18:00:19.650,89,1730346911,425356218,RU_myo,0.627989920227211,0.4300531614268567,-0.27148402810483374,-0.5890495402967065,-27.0,47.125,-29.875,-0.1982421875,0.8271484375,0.5673828125
1969/12/31/18:00:19.671,90,1730346911,446423885,RU_myo,0.6305452685202145,0.4321838201908469,-0.2598229801655748,-0.5900184987692298,-34.125,52.125,-27.75,-0.1611328125,0.80908203125,0.55029296875
1969/12/31/18:00:19.687,91,1730346911,462218308,RU_myo,0.6336660904427084,0.4348138343588764,-0.24768031159858514,-0.5899649807570044,-35.125,58.8125,-24.0,-0.17529296875,0.791015625,0.541015625
1969/12/31/18:00:19.710,92,1730346911,485363270,RU_myo,0.6367924067660315,0.4383021444442512,-0.23596659106273155,-0.5888178230683319,-28.0625,62.75,-19.625,-0.1875,0.724609375,0.52001953125
1969/12/31/18:00:19.731,93,1730346911,506360972,RU_myo,0.6395207102030138,0.44286717629634165,-0.22533980359510658,-0.586603697820306,-19.0,64.625,-15.4375,-0.197265625,0.69873046875,0.494140625
1969/12/31/18:00:19.747,94,1730346911,522140354,RU_myo,0.6423296162160955,0.44805603502873026,-0.21575781008398878,-0.5831869520091973,-13.375,65.5625,-9.125,-0.20654296875,0.69970703125,0.47314453125
1969/12/31/18:00:19.770,95,1730346911,545288582,RU_myo,0.6457008632674022,0.4533761236742852,-0.20685133052398394,-0.5785611572844036,-10.3125,67.125,-0.6875,-0.21142578125,0.654296875,0.45068359375
1969/12/31/18:00:19.792,96,1730346911,567818137,RU_myo,0.6500352216188288,0.4580764636853812,-0.19855066440620187,-0.5728855014191856,-13.625,67.1875,7.375,-0.203125,0.66259765625,0.4228515625
1969/12/31/18:00:19.813,97,1730346911,588862788,RU_myo,0.6560132630295868,0.46149202472708467,-0.19006562161091678,-0.5661684990567964,-21.5,69.5,15.875,-0.18212890625,0.6826171875,0.4453125
1969/12/31/18:00:19.830,98,1730346911,605318415,RU_myo,0.6632139646114767,0.4639323895648661,-0.1815201850501134,-0.5585377314706078,-28.125,70.625,22.9375,-0.173828125,0.70947265625,0.45751953125
1969/12/31/18:00:19.852,99,1730346911,627723845,RU_myo,0.6715023776427741,0.4650834500670732,-0.17291094672441185,-0.5503487492460366,-34.625,69.5625,30.125,-0.19384765625,0.73095703125,0.49169921875
1969/12/31/18:00:19.873,100,1730346911,648880675,RU_myo,0.6793191860863199,0.46673439496874114,-0.16570993622860364,-0.5415022299153487,-29.25,64.6875,36.3125,-0.23046875,0.75048828125,0.45654296875
1969/12/31/18:00:19.890,101,1730346911,665335645,RU_myo,0.6870452687489793,0.4680404336147098,-0.15882123216816313,-0.5326187824363534,-31.1875,60.625,39.5,-0.275390625,0.7646484375,0.43505859375
1969/12/31/18:00:19.912,102,1730346911,687762133,RU_myo,0.6937417773267442,0.4700427087095951,-0.15338492754021718,-0.5236938632292333,-21.25,55.625,41.125,-0.28466796875,0.73583984375,0.41796875
1969/12/31/18:00:19.933,103,1730346911,708786175,RU_myo,0.6995438685110239,0.4726086880621986,-0.1500897280052882,-0.5145410358213011,-12.1875,48.5625,42.6875,-0.2646484375,0.775390625,0.39306640625
1969/12/31/18:00:19.950,104,1730346911,725275371,RU_myo,0.7049725200117734,0.4744983870624698,-0.147769564584286,-0.5059932632811776,-8.4375,42.125,42.0625,-0.244140625,0.7451171875,0.4296875
1969/12/31/18:00:19.972,105,1730346911,747758113,RU_myo,0.709540148878364,0.47681098004626066,-0.14770642239016268,-0.4973800148997668,2.625,34.125,45.5,-0.22509765625,0.72314453125,0.41943359375
1969/12/31/18:00:19.993,106,1730346911,768864327,RU_myo,0.713871599423301,0.4789458311110331,-0.14965912805967288,-0.4884673743317953,8.5625,26.375,51.4375,-0.2109375,0.728515625,0.41162109375
1969/12/31/18:00:20.010,107,1730346911,785389148,RU_myo,0.7190025069467598,0.4795588028082081,-0.15173516402968124,-0.47961983867467217,0.1875,23.125,52.75,-0.18408203125,0.80517578125,0.44873046875
1969/12/31/18:00:20.032,108,1730346911,807895328,RU_myo,0.7246169036889196,0.47839852519489146,-0.15411537077278656,-0.47150148087911925,-7.75,15.3125,54.1875,-0.173828125,0.79150390625,0.4521484375
1969/12/31/18:00:20.038,109,1730346911,813343162,RU_myo,0.7309593431110072,0.4755264063274764,-0.15710498907546197,-0.4635634778664078,-21.625,7.125,57.4375,-0.1630859375,0.86328125,0.38623046875
1969/12/31/18:00:20.060,110,1730346911,835606717,RU_myo,0.7386445262923002,0.4699688359321361,-0.15966733438941144,-0.45611391050920175,-33.6875,2.8125,60.3125,-0.14208984375,0.8603515625,0.46337890625
1969/12/31/18:00:20.075,111,1730346911,850769024,RU_myo,0.745661680261345,0.46410832583345074,-0.16235246537572054,-0.449704122138462,-36.5,-1.3125,53.3125,-0.1064453125,0.8896484375,0.455078125
1969/12/31/18:00:20.098,112,1730346911,873314394,RU_myo,0.7526787711677558,0.45745437803294925,-0.16430516152964633,-0.444087799141793,-38.25,-3.9375,52.375,-0.13720703125,0.80419921875,0.4853515625
1969/12/31/18:00:20.120,113,1730346911,895753292,RU_myo,0.7577044627168005,0.45288924708866274,-0.16852118749485145,-0.43860675600796906,-21.5625,-11.3125,51.375,-0.13427734375,0.8173828125,0.44775390625
1969/12/31/18:00:20.135,114,1730346911,910687811,RU_myo,0.7613832746285667,0.4496031105430513,-0.17359099190665733,-0.4336112540453213,-14.875,-14.5,46.25,-0.11865234375,0.9140625,0.43896484375
1969/12/31/18:00:20.160,115,1730346911,936089912,RU_myo,0.764973997816118,0.4456905874134919,-0.1781663687565027,-0.4294548032102614,-15.5625,-13.625,39.0,-0.06201171875,0.92431640625,0.51708984375
1969/12/31/18:00:20.180,116,1730346911,955650298,RU_myo,0.7685856894753618,0.4417292435461557,-0.18238040344285109,-0.4253101242268361,-8.5625,-12.25,39.5625,-0.05419921875,0.8154296875,0.5888671875
1969/12/31/18:00:20.195,117,1730346911,970651843,RU_myo,0.7712370941026968,0.43847477714733885,-0.1868278525679293,-0.4219343171519423,-3.0,-15.375,35.4375,-0.06982421875,0.83251953125,0.6064453125
1969/12/31/18:00:20.218,118,1730346911,993261188,RU_myo,0.7728347577613612,0.43585634221875535,-0.19110295581668157,-0.41980393807318295,-6.5625,-18.0625,25.75,-0.06396484375,0.9189453125,0.54150390625
1969/12/31/18:00:20.240,119,1730346912,15684828,RU_myo,0.7756404377063602,0.43133860349943715,-0.1938490738240006,-0.4180328421349434,-16.5625,-13.875,24.4375,-0.0234375,0.8515625,0.59814453125
1969/12/31/18:00:20.255,120,1730346912,30758763,RU_myo,0.7779691706965841,0.4279257693200809,-0.19690322804544017,-0.41577953795583955,-10.125,-11.0625,23.0,0.01123046875,0.8671875,0.6025390625
1969/12/31/18:00:20.278,121,1730346912,53389630,RU_myo,0.7800356767152686,0.4245029836897256,-0.19922037940521414,-0.4143100292287358,-16.9375,-12.0625,20.25,-0.029296875,0.89013671875,0.53466796875
1969/12/31/18:00:20.296,122,1730346912,71314346,RU_myo,0.781811681418648,0.42041680549704485,-0.20166334572622477,-0.41394697660873375,-21.25,-16.8125,14.5,-0.0048828125,0.8623046875,0.50830078125
1969/12/31/18:00:20.315,123,1730346912,90779740,RU_myo,0.7832174715235037,0.41706086213529464,-0.20465462765105266,-0.41321557685583854,-9.1875,-15.5625,14.0625,0.0380859375,0.7841796875,0.56201171875
1969/12/31/18:00:20.338,124,1730346912,113316541,RU_myo,0.7835254215395879,0.4159026425466037,-0.20850064968288792,-0.41187423420963926,5.1875,-14.8125,14.875,0.02783203125,0.810546875,0.5693359375
1969/12/31/18:00:20.356,125,1730346912,131238655,RU_myo,0.7827937885487416,0.4159030701887817,-0.21265134965331897,-0.4111422190771402,7.125,-16.75,9.5625,0.021484375,0.89404296875,0.5185546875
1969/12/31/18:00:20.375,126,1730346912,150801248,RU_myo,0.7827878642184732,0.41486230901309645,-0.21551843653453637,-0.4107118548402422,3.125,-12.0625,7.3125,0.04541015625,0.85205078125,0.5888671875
1969/12/31/18:00:20.398,127,1730346912,173332865,RU_myo,0.7831000303322881,0.4142556434813125,-0.21808389776907758,-0.4093727126608462,10.9375,-7.9375,11.3125,0.041015625,0.79736328125,0.65771484375
1969/12/31/18:00:20.414,128,1730346912,189837529,RU_myo,0.7827507081311658,0.4143256243601336,-0.2207742756792285,-0.40852701883358483,8.9375,-10.1875,8.9375,0.00927734375,0.82421875,0.5634765625
1969/12/31/18:00:20.435,129,1730346912,210739907,RU_myo,0.7828670877925381,0.41297978450057016,-0.22254275706312132,-0.4087071588849864,-4.5,-12.0,5.9375,0.0029296875,0.8369140625,0.52978515625
1969/12/31/18:00:20.466,130,1730346912,241583154,RU_myo,0.7830853998994055,0.4116233777803266,-0.22430544385271356,-0.408693674023883,0.75,-9.6875,4.875,0.0380859375,0.7958984375,0.5927734375
1969/12/31/18:00:20.474,131,1730346912,249897071,RU_myo,0.7833485573172169,0.41090092627859626,-0.22601992424385647,-0.40797115140316953,6.125,-6.8125,8.0,0.033203125,0.74951171875,0.59619140625
1969/12/31/18:00:20.495,132,1730346912,270882575,RU_myo,0.783081522899203,0.41021753042911485,-0.22808851528248805,-0.4080202634903486,1.8125,-11.6875,5.125,0.01611328125,0.83642578125,0.5517578125
1969/12/31/18:00:20.526,133,1730346912,301379712,RU_myo,0.7826200030992808,0.40876666360598063,-0.2305988435274593,-0.40894977544573247,-6.375,-17.3125,2.625,0.025390625,0.84912109375,0.482421875
1969/12/31/18:00:20.534,134,1730346912,309789522,RU_myo,0.7833186836228627,0.40581938034972836,-0.23248097755333366,-0.4094814592820466,-13.625,-13.625,4.5,0.08447265625,0.87158203125,0.5478515625
1969/12/31/18:00:20.555,135,1730346912,330781603,RU_myo,0.7825999322642496,0.40704718049214483,-0.23327850110076137,-0.40918343050222505,15.3125,3.625,-7.375,0.16357421875,1.04638671875,0.8076171875
1969/12/31/18:00:20.578,136,1730346912,353161780,RU_myo,0.7830276329519509,0.40655912877799866,-0.23150859862707535,-0.4098550592620119,4.4375,6.5625,-7.5625,0.05712890625,0.7392578125,0.7197265625
1969/12/31/18:00:20.594,137,1730346912,369627387,RU_myo,0.7831654317990399,0.4064452194178011,-0.23090287806840992,-0.41004640096843187,-0.625,1.5,-0.4375,0.0068359375,0.6982421875,0.5107421875
1969/12/31/18:00:20.615,138,1730346912,390684859,RU_myo,0.7812425015060409,0.4101523132906715,-0.2331520590432091,-0.40874851817077784,28.125,-0.375,0.3125,0.04638671875,0.79638671875,0.53369140625
1969/12/31/18:00:20.638,139,1730346912,413275207,RU_myo,0.7803446138272964,0.4132744137837015,-0.2342559740218352,-0.4066825312421803,25.9375,7.875,2.25,0.083984375,0.85400390625,0.6376953125
1969/12/31/18:00:20.654,140,1730346912,429700079,RU_myo,0.7810254088617842,0.41401182778286044,-0.23395360989115493,-0.40479528849416635,11.125,11.125,4.375,0.099609375,0.73828125,0.6142578125
1969/12/31/18:00:20.675,141,1730346912,450688411,RU_myo,0.7825954905907192,0.41320944246600916,-0.2326668234387632,-0.40332171282354334,-7.75,10.8125,6.0,0.06396484375,0.76025390625,0.50830078125
1969/12/31/18:00:20.698,142,1730346912,473256275,RU_myo,0.7844882562489626,0.41113459068645547,-0.231019065580201,-0.40271170269436357,-25.625,7.25,4.875,0.046875,0.86572265625,0.431640625
1969/12/31/18:00:20.714,143,1730346912,489645893,RU_myo,0.7869398575191574,0.40625701478690074,-0.22894682428871166,-0.4040597112213466,-49.1875,0.8125,-1.5625,0.08447265625,0.93408203125,0.38525390625
1969/12/31/18:00:20.735,144,1730346912,510718908,RU_myo,0.7895169554174448,0.3980850083674198,-0.22693653190893387,-0.40827823075278613,-75.25,-14.9375,-8.0625,0.05810546875,1.017578125,0.33984375
1969/12/31/18:00:20.758,145,1730346912,533343279,RU_myo,0.7934569470080666,0.3831786702551263,-0.2239989996553542,-0.41644282687969525,-100.5625,-34.8125,-15.125,0.0498046875,1.0498046875,0.291015625
1969/12/31/18:00:20.776,146,1730346912,551239080,RU_myo,0.7968794440174626,0.36535848283459954,-0.22137574628150558,-0.42718744092204514,-115.8125,-49.0625,-24.375,0.09130859375,0.96826171875,0.27197265625
1969/12/31/18:00:20.795,147,1730346912,570712480,RU_myo,0.7990364623796724,0.3443712260901468,-0.21869587080485572,-0.4417253745505835,-132.8125,-65.5625,-40.9375,0.10693359375,0.86181640625,0.20166015625
1969/12/31/18:00:20.818,148,1730346912,593296194,RU_myo,0.7990905630081094,0.32050294426791803,-0.216252510291608,-0.46039872569280244,-145.8125,-84.375,-61.5625,0.16357421875,0.73876953125,0.1728515625
1969/12/31/18:00:20.836,149,1730346912,611176627,RU_myo,0.7954764677232059,0.29699904027784235,-0.21661520631854966,-0.48175368370592064,-131.875,-104.1875,-80.625,0.26318359375,0.64404296875,0.22705078125
1969/12/31/18:00:20.855,150,1730346912,630831585,RU_myo,0.788786659403332,0.2749125678211412,-0.22046718360789563,-0.5036198039725213,-109.0,-120.0,-87.5,0.3603515625,0.54833984375,0.337890625
1969/12/31/18:00:20.878,151,1730346912,653356219,RU_myo,0.7794287914772562,0.25525224792152584,-0.22943405067838732,-0.5241155076284416,-76.3125,-136.8125,-84.375,0.396484375,0.59912109375,0.5166015625
1969/12/31/18:00:20.896,152,1730346912,671172612,RU_myo,0.7688662405602044,0.23761183412724263,-0.2410298312274547,-0.5424849683336584,-53.125,-142.5,-76.25,0.3388671875,0.53369140625,0.6044921875
1969/12/31/18:00:20.915,153,1730346912,690783680,RU_myo,0.7570816786747679,0.22033737987874172,-0.2537847162149053,-0.5602428836307397,-43.5625,-147.75,-76.0,0.2958984375,0.36669921875,0.57275390625
1969/12/31/18:00:20.938,154,1730346912,713306878,RU_myo,0.743105715352873,0.2047126545620974,-0.26965429572312055,-0.5772115605825149,-22.9375,-158.25,-78.0625,0.31982421875,0.3564453125,0.55419921875
1969/12/31/18:00:20.956,155,1730346912,731159549,RU_myo,0.7275853989431138,0.19115824758743666,-0.289850101466391,-0.5916628518878069,6.0,-168.375,-71.4375,0.4150390625,0.38720703125,0.55322265625
1969/12/31/18:00:20.975,156,1730346912,750778248,RU_myo,0.7111717719716193,0.1768163940440938,-0.3120073891451182,-0.6046669022419183,13.125,-177.875,-66.375,0.56103515625,0.39453125,0.576171875
1969/12/31/18:00:20.998,157,1730346912,773322197,RU_myo,0.6944318024015783,0.1589295494334426,-0.3354365605553766,-0.616431816158898,5.25,-194.6875,-54.5625,0.55859375,0.37646484375,0.51611328125
1969/12/31/18:00:21.015,158,1730346912,791128994,RU_myo,0.6787678181673871,0.13568032189426324,-0.36047142649910874,-0.6252403137583593,-5.875,-216.5,-26.375,0.54248046875,0.4287109375,0.53759765625
1969/12/31/18:00:21.035,159,1730346912,810839263,RU_myo,0.6629082576014175,0.10675136198737493,-0.3850129167617845,-0.6331838932287178,-30.125,-235.4375,-10.8125,0.51171875,0.60986328125,0.53466796875
1969/12/31/18:00:21.058,160,1730346912,833318943,RU_myo,0.6440997064906134,0.07263135134310907,-0.4060031505330769,-0.6442217759886691,-68.6875,-250.3125,-22.375,0.48974609375,0.7001953125,0.5185546875
1969/12/31/18:00:21.076,161,1730346912,851151791,RU_myo,0.621030998213724,0.0343626979847004,-0.42632938796293485,-0.6567975009118313,-86.4375,-272.625,-36.625,0.60986328125,0.46728515625,0.44775390625
1969/12/31/18:00:21.095,162,1730346912,870726265,RU_myo,0.5961730151154441,-0.007079859720863177,-0.451463123751939,-0.6638589153778344,-62.8125,-304.0,-18.6875,0.83203125,0.23291015625,0.4443359375
1969/12/31/18:00:21.118,163,1730346912,893368824,RU_myo,0.5718315941362729,-0.04730168486024245,-0.47802167203279855,-0.66503117191897,-36.1875,-303.3125,-1.8125,1.078125,0.24609375,0.60693359375
1969/12/31/18:00:21.136,164,1730346912,911204628,RU_myo,0.5448580763399985,-0.08258014756222896,-0.5053074956893523,-0.6640591319120851,-13.3125,-296.625,-16.3125,0.97509765625,0.3076171875,0.53076171875
1969/12/31/18:00:21.155,165,1730346912,930757526,RU_myo,0.5171970159995279,-0.11706205766899866,-0.5347136012711664,-0.657940032154226,11.75,-306.25,-5.5625,0.90966796875,0.32080078125,0.5029296875
1969/12/31/18:00:21.185,166,1730346912,960783358,RU_myo,0.4899317918343533,-0.15173420138285815,-0.5640288636279132,-0.6471591863485298,26.125,-309.5,10.25,1.00927734375,0.35400390625,0.49365234375
1969/12/31/18:00:21.196,167,1730346912,971344739,RU_myo,0.4636735835070316,-0.1853595726090371,-0.5898914288002448,-0.6345681516022913,22.375,-295.5625,20.375,1.06298828125,0.47021484375,0.47119140625
1969/12/31/18:00:21.215,168,1730346912,990788064,RU_myo,0.43882956634939724,-0.21654621716379158,-0.6096618272968191,-0.6235774241156873,3.4375,-266.25,20.0625,1.07666015625,0.52294921875,0.513671875
1969/12/31/18:00:21.238,169,1730346913,13218737,RU_myo,0.4161872195479247,-0.24669727840045633,-0.6241282456514267,-0.6135084221873792,-12.75,-240.6875,27.0,1.21728515625,0.48876953125,0.50537109375
1969/12/31/18:00:21.255,170,1730346913,31139640,RU_myo,0.3949494454872727,-0.2759946519075022,-0.6344459103446453,-0.6044173016010603,-26.0625,-223.75,31.6875,1.26708984375,0.44775390625,0.54345703125
1969/12/31/18:00:21.275,171,1730346913,50850095,RU_myo,0.3754675324290437,-0.3011308200593143,-0.6426036490483421,-0.59615846176315,-25.5625,-195.4375,26.375,1.1669921875,0.5009765625,0.40673828125
1969/12/31/18:00:21.298,172,1730346913,73413866,RU_myo,0.357165678502639,-0.32243784680954235,-0.6476832160406707,-0.5907393373593716,-36.0625,-166.9375,17.8125,1.08740234375,0.61865234375,0.3681640625
1969/12/31/18:00:21.320,173,1730346913,95869805,RU_myo,0.3414741524553223,-0.34037557609353575,-0.6491975977957575,-0.5882876417367027,-47.0,-133.6875,15.1875,1.1025390625,0.62890625,0.3916015625
1969/12/31/18:00:21.337,174,1730346913,112415148,RU_myo,0.3280493527697223,-0.3570397606889071,-0.6492630725142895,-0.5859724345938798,-44.9375,-119.4375,18.4375,1.0546875,0.47021484375,0.46337890625
1969/12/31/18:00:21.358,175,1730346913,133316275,RU_myo,0.31877936408474894,-0.36913222170870413,-0.6473241308602043,-0.5857410601419367,-34.1875,-93.5,17.6875,0.85107421875,0.50927734375,0.24951171875
1969/12/31/18:00:21.376,176,1730346913,151229310,RU_myo,0.31425710054877826,-0.3732146377657368,-0.6484718767393219,-0.5843265645084488,3.5,-52.8125,6.0,0.859375,0.62939453125,0.16748046875
1969/12/31/18:00:21.397,177,1730346913,172305426,RU_myo,0.3149892957827189,-0.3725430462037815,-0.6509127765012007,-0.5816407651248423,34.3125,-27.625,-4.375,1.0107421875,0.5615234375,0.2275390625
1969/12/31/18:00:21.425,178,1730346913,200869041,RU_myo,0.3196336314290119,-0.3698033555142989,-0.654159492391856,-0.5771959618911907,54.0625,-9.8125,-1.5,1.06787109375,0.52783203125,0.18896484375
1969/12/31/18:00:21.436,179,1730346913,211339295,RU_myo,0.3247556981568861,-0.36454910450875416,-0.6577508286105548,-0.5735865535197173,54.0625,8.625,-2.6875,0.95068359375,0.60400390625,0.08154296875
1969/12/31/18:00:21.457,180,1730346913,232888853,RU_myo,0.32883855650974186,-0.35904922567683956,-0.6602404425245708,-0.5718666062539498,36.25,22.9375,-1.0625,0.859375,0.66943359375,-0.09521484375
1969/12/31/18:00:21.478,181,1730346913,253877030,RU_myo,0.3332475503734117,-0.3541212980341638,-0.6620395932052008,-0.5703049653276847,28.3125,28.8125,-5.9375,0.89111328125,0.52783203125,-0.18017578125
1969/12/31/18:00:21.496,182,1730346913,271860020,RU_myo,0.3389288520671041,-0.34912174208965163,-0.6643689095534716,-0.5673228308956839,36.9375,29.75,-9.5,0.9130859375,0.38720703125,-0.1748046875
1969/12/31/18:00:21.516,183,1730346913,291502681,RU_myo,0.3455626554952984,-0.34293828350902184,-0.6685435055272869,-0.5621648922231003,53.75,32.5625,-8.375,0.86083984375,0.38818359375,-0.22314453125
1969/12/31/18:00:21.538,184,1730346913,313998850,RU_myo,0.35136289979766167,-0.3381799249225019,-0.6737354613281896,-0.5552107520339289,56.6875,24.5,-1.125,0.7822265625,0.37939453125,-0.3134765625
1969/12/31/18:00:21.562,185,1730346913,337973785,RU_myo,0.3552189688800512,-0.33574906319745046,-0.679432570716964,-0.5472325214739758,51.6875,11.8125,6.375,0.8037109375,0.45166015625,-0.40478515625
1969/12/31/18:00:21.576,186,1730346913,351515786,RU_myo,0.3580135858594537,-0.33463833809536053,-0.6839853830083358,-0.5403771376064785,42.375,2.4375,10.625,0.84033203125,0.50732421875,-0.333984375
1969/12/31/18:00:21.592,187,1730346913,367250808,RU_myo,0.36003219214978444,-0.33384914240707253,-0.6859470770590655,-0.5370271671005176,23.5625,2.0625,7.375,0.8408203125,0.5087890625,-0.19970703125
1969/12/31/18:00:21.616,188,1730346913,391134735,RU_myo,0.3608197269666608,-0.33408781891331213,-0.68599690986219,-0.536286018412728,3.125,2.375,4.9375,0.80908203125,0.46875,-0.18359375
1969/12/31/18:00:21.636,189,1730346913,411588548,RU_myo,0.36028835100756323,-0.33685099258186374,-0.6852375600138765,-0.5358854348376089,-11.0,-4.75,8.875,0.8271484375,0.43359375,-0.2451171875
1969/12/31/18:00:21.652,190,1730346913,427389651,RU_myo,0.3588589346581071,-0.3405498053388159,-0.68476143654149,-0.5351148195718168,-13.375,-10.1875,10.125,0.83203125,0.4345703125,-0.28564453125
1969/12/31/18:00:21.675,191,1730346913,450409896,RU_myo,0.357770038985036,-0.3437936932109703,-0.6844137183859081,-0.5342137753729137,-10.1875,-9.8125,8.5,0.80859375,0.4033203125,-0.25390625
1969/12/31/18:00:21.697,192,1730346913,472916525,RU_myo,0.35728253030083573,-0.3462357011268604,-0.6842930867326563,-0.533116314003724,-4.4375,-8.4375,6.5,0.82861328125,0.3984375,-0.21826171875
1969/12/31/18:00:21.712,193,1730346913,487758644,RU_myo,0.35729425635358847,-0.34765085141613256,-0.6847427847678355,-0.531607955729374,3.375,-7.6875,4.875,0.86865234375,0.435546875,-0.1923828125
1969/12/31/18:00:21.735,194,1730346913,510444837,RU_myo,0.3574739359817785,-0.34886819499263205,-0.6849803625616357,-0.530382192877182,2.6875,-5.4375,5.75,0.8798828125,0.46044921875,-0.19580078125
1969/12/31/18:00:21.757,195,1730346913,532786250,RU_myo,0.3574119876894745,-0.35069830622672826,-0.6845513753287477,-0.5297705008785244,-3.5625,-5.0625,8.1875,0.8603515625,0.4619140625,-0.20263671875
1969/12/31/18:00:21.779,196,1730346913,554073729,RU_myo,0.3568606353194671,-0.35325968141424247,-0.6835709108223075,-0.5297064227702506,-9.8125,-6.5625,10.8125,0.83544921875,0.45947265625,-0.2021484375
1969/12/31/18:00:21.795,197,1730346913,570468959,RU_myo,0.3563207068662014,-0.3559544985343759,-0.6824902610787708,-0.5296593172635998,-10.125,-7.5,11.6875,0.83349609375,0.462890625,-0.18896484375
1969/12/31/18:00:21.817,198,1730346913,592941870,RU_myo,0.3558906253351091,-0.35814889203677247,-0.6815693042560733,-0.5296550928928274,-8.0625,-6.4375,8.75,0.8544921875,0.45751953125,-0.18310546875
1969/12/31/18:00:21.832,199,1730346913,607313820,RU_myo,0.3558876735763666,-0.3593665961271903,-0.6810753814849382,-0.5294675987437798,-3.75,-2.8125,5.4375,0.86865234375,0.45458984375,-0.19189453125
1969/12/31/18:00:21.855,200,1730346913,630367766,RU_myo,0.35661421867015525,-0.3596048222496243,-0.6810031579533787,-0.528909604483239,2.75,1.5625,3.8125,0.87841796875,0.4609375,-0.19775390625
1969/12/31/18:00:21.877,201,1730346913,652807223,RU_myo,0.35771550137474434,-0.3585699659745134,-0.6812524187587266,-0.5285473881428572,6.25,6.3125,0.25,0.87548828125,0.47802734375,-0.18896484375
1969/12/31/18:00:21.892,202,1730346913,667384403,RU_myo,0.3588771806090304,-0.3570461745855149,-0.6814394084183375,-0.5285504054547965,5.75,9.8125,-2.75,0.87353515625,0.4716796875,-0.2001953125
1969/12/31/18:00:21.915,203,1730346913,690489592,RU_myo,0.3599036111997674,-0.35557036439712475,-0.6815403809170429,-0.5287171415675064,3.4375,10.9375,-3.8125,0.8564453125,0.44677734375,-0.220703125
1969/12/31/18:00:21.937,204,1730346913,713071811,RU_myo,0.36113172531864013,-0.3541739736393558,-0.6817986316603901,-0.5284839630782668,4.4375,11.375,-3.75,0.85400390625,0.42626953125,-0.236328125
1969/12/31/18:00:21.952,205,1730346913,727378417,RU_myo,0.3625969473635376,-0.3525875382796089,-0.6824097741915021,-0.5277521972483604,8.3125,12.1875,-4.0,0.85888671875,0.41748046875,-0.2509765625
1969/12/31/18:00:21.975,206,1730346913,750293509,RU_myo,0.3641859768272538,-0.3510027740461767,-0.6830852107676595,-0.5268398444734129,9.25,12.375,-3.0625,0.8564453125,0.421875,-0.25146484375
1969/12/31/18:00:22.005,207,1730346913,780379431,RU_myo,0.3656381595311996,-0.349831068341318,-0.6834888580520622,-0.5260892897945152,6.625,11.5,-0.1875,0.8369140625,0.435546875,-0.2509765625
1969/12/31/18:00:22.012,208,1730346913,787309063,RU_myo,0.3668657043845341,-0.34934940806805403,-0.6832576211254132,-0.5258550838424797,1.75,10.1875,2.8125,0.85791015625,0.45849609375,-0.236328125
1969/12/31/18:00:22.035,209,1730346913,810355775,RU_myo,0.36765940416822934,-0.3494107053225619,-0.6822816200525624,-0.5265268392694745,-5.5625,9.125,4.3125,0.85888671875,0.47216796875,-0.22314453125
1969/12/31/18:00:22.057,210,1730346913,832785456,RU_myo,0.36814301904622565,-0.35026074043539274,-0.6805030938934709,-0.5279239248590604,-12.375,7.8125,6.625,0.84423828125,0.46728515625,-0.19873046875
1969/12/31/18:00:22.080,211,1730346913,855493381,RU_myo,0.3684437466078046,-0.35166023984664074,-0.6780536731510202,-0.5299315971170395,-17.625,6.1875,8.3125,0.83251953125,0.458984375,-0.1630859375
1969/12/31/18:00:22.095,212,1730346913,870401613,RU_myo,0.3688274073478545,-0.353263781851627,-0.6752172112343727,-0.5322149581455058,-19.8125,7.1875,8.8125,0.84619140625,0.45556640625,-0.154296875
1969/12/31/18:00:22.125,213,1730346913,900430127,RU_myo,0.3697356267528193,-0.35459953638723674,-0.6723353688195869,-0.5343406094785297,-18.125,9.9375,9.4375,0.85791015625,0.4443359375,-0.15478515625
1969/12/31/18:00:22.138,214,1730346913,914066391,RU_myo,0.3708980940437427,-0.35563982129223115,-0.6697771407003509,-0.5360536383061038,-14.1875,10.5,9.875,0.83203125,0.4453125,-0.14794921875
1969/12/31/18:00:22.155,215,1730346913,930381011,RU_myo,0.37199871836599674,-0.3565572621319365,-0.6674004898001926,-0.5376434306950066,-13.4375,10.6875,10.9375,0.810546875,0.45458984375,-0.1474609375
1969/12/31/18:00:22.177,216,1730346913,952845554,RU_myo,0.37308612065986985,-0.3574620331596364,-0.6649391926368856,-0.5393361767170407,-13.6875,10.8125,10.8125,0.81640625,0.4658203125,-0.14208984375
1969/12/31/18:00:22.206,217,1730346913,981504775,RU_myo,0.3743762181017011,-0.35826351487723923,-0.6623297552721976,-0.5411182832881777,-13.6875,11.875,11.5,0.82177734375,0.4580078125,-0.12890625
1969/12/31/18:00:22.215,218,1730346913,990391088,RU_myo,0.3764504821753095,-0.3591171590660702,-0.6593376392574366,-0.5427649380650175,-12.5625,14.4375,13.4375,0.85791015625,0.4501953125,-0.11279296875
1969/12/31/18:00:22.237,219,1730346914,12891909,RU_myo,0.37932313688119756,-0.3594262193231492,-0.6563541454578277,-0.5441745918636778,-8.9375,18.0,13.0625,0.90185546875,0.44873046875,-0.1044921875
1969/12/31/18:00:22.258,220,1730346914,33902795,RU_myo,0.382551881816705,-0.3585050660164846,-0.6540245637440668,-0.545325632423781,-2.125,21.125,8.625,0.92724609375,0.4541015625,-0.0947265625
