time,.header.seq,.header.stamp.secs,.header.stamp.nsecs,.header.frame_id,.orientation.x,.orientation.y,.orientation.z,.orientation.w,.angular_velocity.x,.angular_velocity.y,.angular_velocity.z,.linear_acceleration.x,.linear_acceleration.y,.linear_acceleration.z
1969/12/31/18:00:17.768,1,1730344910,680730350,RL_myo,-0.23944859700761875,0.33118737888435873,0.4610133197039369,0.7876839521752027,202.0625,136.375,-41.8125,1.263671875,1.3095703125,0.88720703125
1969/12/31/18:00:17.789,2,1730344910,701729311,RL_myo,-0.24500445578569255,0.2966421661979237,0.47297945388224505,0.7926327510794727,98.8125,160.125,-89.875,0.98095703125,1.34228515625,0.810546875
1969/12/31/18:00:17.820,3,1730344910,732561502,RL_myo,-0.23670873631256306,0.2557528636280658,0.4764694161051746,0.807178011603232,15.75,183.5625,-169.1875,0.79736328125,1.32177734375,0.4931640625
1969/12/31/18:00:17.828,4,1730344910,740827770,RL_myo,-0.22064636619330974,0.2101481158516087,0.4717498656453917,0.8274086141401125,-40.8125,204.25,-218.125,0.64794921875,0.96923828125,0.4638671875
1969/12/31/18:00:17.849,5,1730344910,761942882,RL_myo,-0.20636524743536347,0.15967213466161218,0.46900637719412386,0.8437720143586112,-11.0625,223.6875,-221.1875,0.380859375,0.7021484375,0.4716796875
1969/12/31/18:00:17.871,6,1730344910,784269505,RL_myo,-0.19091981867273972,0.11212266844687432,0.4715621864020419,0.8535849309904939,30.0,191.5,-213.8125,-0.0537109375,0.32177734375,0.3740234375
1969/12/31/18:00:17.888,7,1730344910,800763298,RL_myo,-0.17328461754235366,0.06128135118440404,0.4859171681066141,0.854459796046287,110.0,183.625,-228.75,-0.2197265625,0.49951171875,0.1630859375
1969/12/31/18:00:17.909,8,1730344910,821966418,RL_myo,-0.1549718754655299,0.006347804272711741,0.5085567807714829,0.846943577770655,178.8125,189.0625,-236.5,-0.37744140625,0.53662109375,0.203125
1969/12/31/18:00:17.931,9,1730344910,844293467,RL_myo,-0.13837019285493077,-0.04858521107742607,0.5297985328543445,0.8353482397055944,186.1875,195.0625,-223.4375,-0.47802734375,0.689453125,0.3798828125
1969/12/31/18:00:17.949,10,1730344910,862220231,RL_myo,-0.12494672016021705,-0.10242334950114519,0.5434907651717502,0.8237205610953244,150.3125,205.6875,-206.875,-0.5634765625,0.84130859375,0.5185546875
1969/12/31/18:00:17.969,11,1730344910,881778860,RL_myo,-0.11633631633247317,-0.1574751816042921,0.5514072831834012,0.8109361483700097,124.0625,233.1875,-192.4375,-0.50341796875,0.896484375,0.4423828125
1969/12/31/18:00:17.991,12,1730344910,904271910,RL_myo,-0.1107221248969805,-0.21173927853783095,0.5536106244849025,0.7977608447649036,97.625,243.25,-179.375,-0.642578125,0.63916015625,0.47900390625
1969/12/31/18:00:18.014,13,1730344910,926826964,RL_myo,-0.10846074157562646,-0.2601959152149103,0.557013352627556,0.7811981043480265,107.9375,232.0,-141.875,-0.6630859375,0.5166015625,0.498046875
1969/12/31/18:00:18.029,14,1730344910,941727456,RL_myo,-0.10827668806252248,-0.29919522259441106,0.5629899496554157,0.7627586080706559,116.25,197.8125,-97.0625,-0.66845703125,0.43896484375,0.44775390625
1969/12/31/18:00:18.051,15,1730344910,964221474,RL_myo,-0.10858366462172951,-0.3278872660752844,0.5694691348626961,0.745925219416614,103.375,150.9375,-60.375,-0.724609375,0.33544921875,0.24365234375
1969/12/31/18:00:18.069,16,1730344910,982113134,RL_myo,-0.10797361468650879,-0.3426590575749352,0.5740485280534852,0.7357953222418675,64.9375,73.375,0.1875,-0.73974609375,0.42431640625,0.07275390625
1969/12/31/18:00:18.089,17,1730344911,1748391,RL_myo,-0.11054020550614597,-0.34022700468871214,0.5948784333864708,0.7198236573903807,130.9375,14.6875,76.9375,-0.58251953125,0.28271484375,-0.15185546875
1969/12/31/18:00:18.119,18,1730344911,31926541,RL_myo,-0.1171903901172764,-0.3280110190053351,0.6230622407901862,0.7003346542737653,161.25,-7.9375,140.4375,-0.3388671875,0.26025390625,-0.0517578125
1969/12/31/18:00:18.129,19,1730344911,42164906,RL_myo,-0.128849093064348,-0.30640570686074226,0.648212869892646,0.6850792139053727,122.1875,-32.4375,180.75,-0.10986328125,0.693359375,0.171875
1969/12/31/18:00:18.149,20,1730344911,61810381,RL_myo,-0.13953355520852165,-0.2800437232269017,0.670933000372734,0.6722758429862893,99.3125,-58.125,185.8125,0.0087890625,0.89453125,-0.01416015625
1969/12/31/18:00:18.171,21,1730344911,84233637,RL_myo,-0.1519818794344538,-0.2513499516108758,0.6911818484802228,0.6602971773983619,80.1875,-60.0625,197.75,0.087890625,0.57861328125,-0.0927734375
1969/12/31/18:00:18.190,22,1730344911,102311144,RL_myo,-0.17168988141889258,-0.2136815765544056,0.702201239148368,0.6570967875420538,-5.5,-69.9375,236.0625,0.36669921875,0.5322265625,0.02783203125
1969/12/31/18:00:18.209,23,1730344911,121887748,RL_myo,-0.18732585993749382,-0.17493513019904114,0.7091403847356804,0.6568307522930501,-31.25,-90.5,214.125,0.57958984375,0.73828125,-0.1220703125
1969/12/31/18:00:18.231,24,1730344911,144244501,RL_myo,-0.19599379269400374,-0.14350090520822262,0.723303158961054,0.6463949749702583,53.375,-88.625,175.25,0.65576171875,0.388671875,-0.04541015625
1969/12/31/18:00:18.249,25,1730344911,162079561,RL_myo,-0.20428625243018192,-0.11969086973874715,0.7422542921432453,0.6268969521094707,117.875,-60.5625,153.875,0.8349609375,0.35498046875,-0.03662109375
1969/12/31/18:00:18.269,26,1730344911,181791535,RL_myo,-0.20759192012370967,-0.10852644339310667,0.7646902603086841,0.6003135943595074,175.6875,-35.4375,94.8125,0.78759765625,0.775390625,-0.3232421875
1969/12/31/18:00:18.292,27,1730344911,204271122,RL_myo,-0.20575504360389624,-0.10937794071141561,0.7870084640251077,0.5712433856686042,204.125,-14.4375,33.5,0.54541015625,1.0927734375,-0.4384765625
1969/12/31/18:00:18.323,28,1730344911,235665104,RL_myo,-0.20405080138905848,-0.11426356571950867,0.8041176361051321,0.5465363073998294,173.0,3.25,9.6875,0.42919921875,1.2392578125,-0.515625
1969/12/31/18:00:18.329,29,1730344911,241818513,RL_myo,-0.2056320016863937,-0.11584729569628235,0.8131894207384456,0.5319942198571112,94.375,9.8125,16.0,0.36279296875,1.26513671875,-0.5126953125
1969/12/31/18:00:18.351,30,1730344911,264337919,RL_myo,-0.20776739752789883,-0.11383260763499745,0.813491149897719,0.5311374539623313,-1.125,4.875,17.5,0.27197265625,1.1767578125,-0.484375
1969/12/31/18:00:18.369,31,1730344911,282047859,RL_myo,-0.20966298894984317,-0.10864632324038452,0.8111851886880396,0.5349915860685227,-42.8125,-3.4375,25.8125,0.20361328125,0.95947265625,-0.517578125
1969/12/31/18:00:18.389,32,1730344911,301723981,RL_myo,-0.21313854431854148,-0.10150326437621263,0.8110495351960995,0.5352267740920075,-24.3125,-3.875,41.0625,0.23681640625,0.75634765625,-0.4677734375
1969/12/31/18:00:18.411,33,1730344911,324262939,RL_myo,-0.21900062012916638,-0.09424106953161453,0.8144772226877358,0.528946313834826,16.9375,3.4375,51.0,0.353515625,0.66552734375,-0.4189453125
1969/12/31/18:00:18.429,34,1730344911,342265447,RL_myo,-0.22504707617593936,-0.09161802585844453,0.8218155230900047,0.5153437657047616,71.375,15.875,39.0,0.40478515625,0.6708984375,-0.404296875
1969/12/31/18:00:18.449,35,1730344911,361795240,RL_myo,-0.22797117362470523,-0.0948506569779898,0.8296685844928028,0.5006820715511264,91.1875,22.75,18.0625,0.28662109375,0.9619140625,-0.48876953125
1969/12/31/18:00:18.472,36,1730344911,384367465,RL_myo,-0.22735724993731393,-0.10205136158260104,0.8358812182259099,0.4890774882544152,84.5625,19.4375,-8.3125,0.22021484375,1.13134765625,-0.521484375
1969/12/31/18:00:18.489,37,1730344911,402049234,RL_myo,-0.22907535193010653,-0.10669430193813649,0.8399429570770574,0.4802464345819553,54.25,24.125,-0.25,0.2705078125,0.99365234375,-0.5771484375
1969/12/31/18:00:18.509,38,1730344911,421755805,RL_myo,-0.23231319853181032,-0.10840468749145957,0.8420895656712704,0.47451466247669294,29.625,25.5,15.4375,0.251953125,1.02880859375,-0.6015625
1969/12/31/18:00:18.531,39,1730344911,444318573,RL_myo,-0.23358365487342025,-0.10974220315192307,0.8430862358940564,0.47180602356193846,15.625,15.1875,10.25,0.173828125,0.95458984375,-0.521484375
1969/12/31/18:00:18.550,40,1730344911,462280696,RL_myo,-0.2337193843053394,-0.1088330274788248,0.8441731744431559,0.47000241816430227,2.375,3.9375,14.375,0.17724609375,0.81640625,-0.5654296875
1969/12/31/18:00:18.569,41,1730344911,481881888,RL_myo,-0.23316106591583277,-0.10876780614188848,0.8456666409067705,0.46760390732492013,11.375,1.25,8.75,0.19091796875,0.83642578125,-0.53173828125
1969/12/31/18:00:18.591,42,1730344911,504251688,RL_myo,-0.23182229716464808,-0.10901385538074289,0.8478787598510076,0.4641939362657053,20.0625,-1.25,8.75,0.12939453125,0.7470703125,-0.46533203125
1969/12/31/18:00:18.609,43,1730344911,522104778,RL_myo,-0.2305981266056645,-0.10760838994329977,0.8501245916791147,0.46101314194086396,15.4375,-3.6875,18.75,0.11083984375,0.76806640625,-0.517578125
1969/12/31/18:00:18.629,44,1730344911,541813145,RL_myo,-0.229013077264156,-0.10669372576165903,0.8530004676883209,0.45668332731620875,24.5,-6.25,14.125,0.158203125,0.76171875,-0.5068359375
1969/12/31/18:00:18.654,45,1730344911,567250477,RL_myo,-0.22699644567772745,-0.10620430639398919,0.8550667403870084,0.45393185439775724,15.3125,-7.6875,7.25,0.17919921875,0.76416015625,-0.51953125
1969/12/31/18:00:18.670,46,1730344911,582659229,RL_myo,-0.2254624788152799,-0.1046136136138034,0.8551583082514582,0.4548922183568709,-6.875,-8.9375,7.375,0.19775390625,0.8037109375,-0.49365234375
1969/12/31/18:00:18.690,47,1730344911,603101067,RL_myo,-0.2222336723984838,-0.1028463987891912,0.8548763569385235,0.457407069748486,-19.0,-17.125,1.5,0.21435546875,0.85498046875,-0.5908203125
1969/12/31/18:00:18.711,48,1730344911,624188947,RL_myo,-0.21734975002695434,-0.10101483748795546,0.8543841058346832,0.4610671192652662,-27.1875,-23.625,-2.3125,0.185546875,0.87939453125,-0.65234375
1969/12/31/18:00:18.729,49,1730344911,642235673,RL_myo,-0.2128998031080784,-0.09900329146826353,0.8551394041124365,0.4621781276187987,-10.9375,-25.5625,-1.8125,0.26416015625,0.8798828125,-0.64111328125
1969/12/31/18:00:18.757,50,1730344911,669369849,RL_myo,-0.20929890348181626,-0.09643985637249043,0.8560563200153027,0.46266715905283384,-8.6875,-23.8125,2.3125,0.30615234375,0.91015625,-0.6552734375
1969/12/31/18:00:18.772,51,1730344911,684347606,RL_myo,-0.2072209994350476,-0.09393611726967253,0.8572052182815342,0.4619899100806702,-2.875,-17.125,5.3125,0.3251953125,0.8505859375,-0.62841796875
1969/12/31/18:00:18.789,52,1730344911,702156940,RL_myo,-0.20636274000538693,-0.09210333471402807,0.859448015976295,0.4585635213429376,12.125,-7.5,11.125,0.25341796875,0.73681640625,-0.58935546875
1969/12/31/18:00:18.810,53,1730344911,723164921,RL_myo,-0.20539208904396217,-0.09167872741278787,0.8612429053225279,0.45570797527554874,12.6875,-2.25,7.6875,0.2021484375,0.82470703125,-0.60791015625
1969/12/31/18:00:18.831,54,1730344911,744275219,RL_myo,-0.2030697698822319,-0.09265401583445387,0.8648928882570563,0.44959781333108517,34.3125,-2.375,6.125,0.1123046875,0.755859375,-0.61083984375
1969/12/31/18:00:18.849,55,1730344911,762118669,RL_myo,-0.20112182471006673,-0.09271746638379101,0.8674790205704002,0.4454589003745272,26.4375,-5.4375,8.0625,0.15380859375,0.85009765625,-0.57568359375
1969/12/31/18:00:18.877,56,1730344911,789344375,RL_myo,-0.19897872448642412,-0.0938129753176791,0.8684261631879885,0.4443451270739778,11.375,-3.8125,-1.8125,0.18408203125,0.966796875,-0.61181640625
1969/12/31/18:00:18.891,57,1730344911,804233760,RL_myo,-0.195991013583045,-0.09466896981230234,0.8681956328885806,0.44593906734279876,-5.5625,-8.9375,-7.0,0.17724609375,0.9375,-0.6025390625
1969/12/31/18:00:18.909,58,1730344911,822064980,RL_myo,-0.19489131269337648,-0.09344772932463495,0.8661157930219269,0.45069760505101536,-26.75,-8.0625,-0.375,0.2421875,0.93701171875,-0.54052734375
1969/12/31/18:00:18.930,59,1730344911,843269013,RL_myo,-0.19500923374399728,-0.0924081314204732,0.8632286675559793,0.456364331988691,-35.25,-1.4375,-0.6875,0.2431640625,0.90673828125,-0.52685546875
1969/12/31/18:00:18.952,60,1730344911,864501929,RL_myo,-0.19471452760101274,-0.09143647722455081,0.8615049663199668,0.4599291427817025,-24.1875,-1.4375,2.4375,0.19677734375,0.83447265625,-0.52490234375
1969/12/31/18:00:18.981,61,1730344911,894235280,RL_myo,-0.19440087613181145,-0.09088317254639475,0.8607960929629316,0.4614960830243725,-12.875,-0.25,3.0625,0.20654296875,0.87646484375,-0.57568359375
1969/12/31/18:00:18.992,62,1730344911,904607632,RL_myo,-0.19433887212934337,-0.09088272003787445,0.8609749152815696,0.4611886048396101,1.75,1.25,3.0,0.224609375,0.89306640625,-0.54345703125
1969/12/31/18:00:19.013,63,1730344911,925712580,RL_myo,-0.1942789973398738,-0.0907611904003746,0.8611631710550675,0.460886179363301,-0.4375,2.5,5.1875,0.20068359375,0.9013671875,-0.580078125
1969/12/31/18:00:19.029,64,1730344911,942259308,RL_myo,-0.1947033071497779,-0.09021049779541435,0.8614553219786726,0.46026885241895776,2.0,3.75,9.4375,0.1875,0.88720703125,-0.55224609375
1969/12/31/18:00:19.052,65,1730344911,964619886,RL_myo,-0.19574620774304727,-0.08948049284418687,0.8609292984769821,0.460952716206889,-7.375,5.0625,6.8125,0.24755859375,0.8994140625,-0.5634765625
1969/12/31/18:00:19.075,66,1730344911,987741551,RL_myo,-0.1967250803671135,-0.08984775622103353,0.8602068127873815,0.4618125839458829,-10.4375,8.5625,2.0,0.21923828125,0.84521484375,-0.57373046875
1969/12/31/18:00:19.088,67,1730344912,1153249,RL_myo,-0.1973991096722608,-0.09052037094742199,0.8599130046576406,0.46194077365481434,-10.6875,9.4375,-0.1875,0.22021484375,0.80810546875,-0.64599609375
1969/12/31/18:00:19.111,68,1730344912,24076863,RL_myo,-0.19690309600655456,-0.0920427367569387,0.8599403966634678,0.46180062752188217,-11.0,7.5,-6.0,0.22021484375,0.87548828125,-0.755859375
1969/12/31/18:00:19.132,69,1730344912,44925476,RL_myo,-0.1942256780048422,-0.0945492065460404,0.8596103781716508,0.4630408527167608,-12.6875,-0.5625,-15.375,0.2119140625,1.04443359375,-0.78955078125
1969/12/31/18:00:19.149,70,1730344912,61453625,RL_myo,-0.1886685292957127,-0.09827121713558637,0.8590491366249954,0.4655980399442564,-15.3125,-11.0,-27.8125,0.1708984375,1.1162109375,-0.8046875
1969/12/31/18:00:19.171,71,1730344912,84507460,RL_myo,-0.18225738980793996,-0.10119985006750318,0.8576351588048776,0.47010931557292485,-26.25,-21.0625,-34.6875,0.24365234375,1.1201171875,-0.76953125
1969/12/31/18:00:19.192,72,1730344912,104916298,RL_myo,-0.1750554053278947,-0.10412988894330139,0.8550736308362891,0.47682455593497686,-34.0,-28.75,-42.3125,0.27685546875,1.17919921875,-0.68701171875
1969/12/31/18:00:19.209,73,1730344912,121783207,RL_myo,-0.16406915738254432,-0.10925736298911992,0.8531840334424124,0.482929751938501,-27.0625,-36.5,-54.875,0.09375,1.080078125,-0.66552734375
1969/12/31/18:00:19.231,74,1730344912,143886700,RL_myo,-0.1500893911127102,-0.11505429127590837,0.8522562700718879,0.4877447435468349,-17.8125,-48.375,-63.0625,0.021484375,1.02587890625,-0.66064453125
1969/12/31/18:00:19.252,75,1730344912,164918620,RL_myo,-0.13599019812012128,-0.11963231073403846,0.8523802139800241,0.49055351090278937,-2.25,-55.8125,-60.5,0.06982421875,0.9775390625,-0.57763671875
1969/12/31/18:00:19.269,76,1730344912,181385253,RL_myo,-0.12280832556900587,-0.12262521176348548,0.8534934475305214,0.49135537814637037,9.6875,-58.1875,-53.0,0.1171875,0.91552734375,-0.5244140625
1969/12/31/18:00:19.291,77,1730344912,203788466,RL_myo,-0.10870588533857259,-0.125551940562293,0.8560359583792704,0.4895121843994117,26.4375,-58.8125,-47.125,0.00537109375,0.88818359375,-0.5400390625
1969/12/31/18:00:19.312,78,1730344912,224819760,RL_myo,-0.09283767473859736,-0.12921588259145997,0.8589163438011453,0.4867721604472807,31.8125,-62.3125,-50.5625,-0.10498046875,0.83984375,-0.55078125
1969/12/31/18:00:19.328,79,1730344912,241146763,RL_myo,-0.07824797337360814,-0.13025052666090467,0.8623146394870015,0.48303780130946555,38.3125,-65.1875,-36.125,-0.0771484375,0.755859375,-0.47509765625
1969/12/31/18:00:19.351,80,1730344912,264099719,RL_myo,-0.06634746765442465,-0.12799506869487443,0.8664234621477074,0.47804357559287386,46.375,-61.5,-13.9375,-0.048828125,0.7021484375,-0.40478515625
1969/12/31/18:00:19.372,81,1730344912,284920027,RL_myo,-0.055420569743083285,-0.12536767648930955,0.8709818614909675,0.47180727325334115,50.6875,-55.8125,-6.9375,-0.08935546875,0.6923828125,-0.4443359375
1969/12/31/18:00:19.396,82,1730344912,308863366,RL_myo,-0.04480184316545822,-0.1219537910689176,0.8758943452647485,0.46468178749132616,55.8125,-55.8125,-1.5,-0.10791015625,0.6689453125,-0.4521484375
1969/12/31/18:00:19.411,83,1730344912,323935922,RL_myo,-0.03497421506805795,-0.11731316118814551,0.8809473753530199,0.45710627686681676,55.0,-56.875,3.6875,-0.056640625,0.62353515625,-0.47998046875
1969/12/31/18:00:19.432,84,1730344912,344997352,RL_myo,-0.025696852377427283,-0.11194305762518203,0.8855342857285392,0.45015269901075106,49.5625,-55.1875,10.125,-0.09521484375,0.65087890625,-0.525390625
1969/12/31/18:00:19.448,85,1730344912,361291172,RL_myo,-0.0174564301112842,-0.10547101829475208,0.8892403157038444,0.44477274902422365,41.875,-55.9375,14.0625,-0.0439453125,0.69482421875,-0.51953125
1969/12/31/18:00:19.472,86,1730344912,384465149,RL_myo,-0.01013220898235145,-0.09979615473581097,0.8924889140960416,0.43977449227615784,35.25,-51.25,10.3125,-0.0234375,0.732421875,-0.609375
1969/12/31/18:00:19.494,87,1730344912,406337775,RL_myo,-0.001648012933913069,-0.0949133374901786,0.8948710231147965,0.43611305232625475,28.5,-52.0625,7.375,-0.11572265625,0.74169921875,-0.60302734375
1969/12/31/18:00:19.508,88,1730344912,421255570,RL_myo,0.006103779463782206,-0.0891151801712202,0.8962179386671413,0.4345280600266553,15.4375,-53.8125,10.6875,-0.072265625,0.71826171875,-0.58056640625
1969/12/31/18:00:19.539,89,1730344912,451492811,RL_myo,0.01184163366145615,-0.08154856995724441,0.8975836236686221,0.43307417952593497,12.9375,-50.25,22.0625,-0.0185546875,0.6474609375,-0.5380859375
1969/12/31/18:00:19.552,90,1730344912,465099971,RL_myo,0.01525919351950573,-0.07379345986032972,0.8995599763619019,0.4302482204759836,22.5625,-39.8125,26.5,0.02685546875,0.6552734375,-0.515625
1969/12/31/18:00:19.569,91,1730344912,481413816,RL_myo,0.019226368559026697,-0.06677348318595303,0.9017472034636838,0.4266422737384019,28.375,-37.0625,25.3125,-0.05908203125,0.724609375,-0.5615234375
1969/12/31/18:00:19.591,92,1730344912,503793033,RL_myo,0.02307251790552045,-0.06024490786441451,0.9039177715948475,0.4228130463797359,26.125,-36.5,22.25,-0.03759765625,0.6884765625,-0.6005859375
1969/12/31/18:00:19.612,93,1730344912,524801160,RL_myo,0.02539119382073865,-0.053223848585779096,0.9053547546707125,0.4205416476559839,16.0625,-33.3125,24.8125,0.03076171875,0.71142578125,-0.6201171875
1969/12/31/18:00:19.629,94,1730344912,541910343,RL_myo,0.026490397148624212,-0.04590041164922905,0.9058617144763408,0.4202451252725292,5.1875,-27.625,30.1875,0.015625,0.7353515625,-0.60888671875
1969/12/31/18:00:19.651,95,1730344912,563697636,RL_myo,0.02832104465525528,-0.03881936293263439,0.90560202489229,0.4213976127152639,-5.625,-27.375,31.625,-0.07177734375,0.7294921875,-0.6298828125
1969/12/31/18:00:19.672,96,1730344912,584928463,RL_myo,0.03064055858598081,-0.032227519787645154,0.9048730697951504,0.4233524190286113,-9.25,-31.9375,24.75,-0.00537109375,0.77197265625,-0.62060546875
1969/12/31/18:00:19.689,97,1730344912,601474866,RL_myo,0.03235035290079968,-0.026063397525738604,0.9034293835561056,0.4267194662820576,-17.25,-30.25,21.1875,0.0380859375,0.830078125,-0.64599609375
1969/12/31/18:00:19.711,98,1730344912,624224032,RL_myo,0.03393721712979913,-0.019715325778642302,0.9000076737030364,0.43410339609196297,-38.25,-28.4375,25.4375,-0.0087890625,0.91064453125,-0.59814453125
1969/12/31/18:00:19.732,99,1730344912,644968939,RL_myo,0.034913753355947645,-0.01324525258433678,0.8960382854288661,0.442403643922917,-50.625,-24.75,29.375,-0.0322265625,0.82080078125,-0.61572265625
1969/12/31/18:00:19.756,100,1730344912,668884295,RL_myo,0.035584992843908855,-0.00726348910536047,0.8932870845121889,0.44801689103651976,-35.625,-21.375,27.6875,-0.0283203125,0.76611328125,-0.59375
1969/12/31/18:00:19.771,101,1730344912,683841832,RL_myo,0.03692738114369881,-0.0017700728151525049,0.8912621809260992,0.45197893780014825,-18.4375,-22.5,23.375,-0.03857421875,0.88623046875,-0.53759765625
1969/12/31/18:00:19.792,102,1730344912,704849808,RL_myo,0.03814836298017177,0.003173943799950291,0.8896198246976057,0.45509471100825716,-14.4375,-21.875,18.6875,-0.001953125,0.919921875,-0.58056640625
1969/12/31/18:00:19.815,103,1730344912,727459631,RL_myo,0.03759937009803194,0.00799596993967887,0.8879799288736503,0.45827284203899965,-19.1875,-15.375,19.4375,0.0595703125,0.875,-0.623046875
1969/12/31/18:00:19.845,104,1730344912,758166511,RL_myo,0.03613458181360304,0.01251281971585916,0.8861517884626502,0.46181460473263614,-19.0,-8.6875,21.625,0.05078125,0.8818359375,-0.5625
1969/12/31/18:00:19.853,105,1730344912,765497588,RL_myo,0.035035706391881374,0.016358134691679804,0.8843769162229429,0.46516919584064104,-17.1875,-6.0,21.0625,-0.01123046875,0.861328125,-0.52734375
1969/12/31/18:00:19.868,106,1730344912,780679048,RL_myo,0.03521890250362423,0.0204477163582567,0.8821205874911219,0.4692598309321717,-21.0625,-11.875,20.75,-0.04443359375,0.953125,-0.5556640625
1969/12/31/18:00:19.891,107,1730344912,803909815,RL_myo,0.03503505076034211,0.0247808895621932,0.879538469436463,0.47388873537159604,-26.5625,-14.4375,18.0625,0.05322265625,0.91552734375,-0.55078125
1969/12/31/18:00:19.912,108,1730344912,824979549,RL_myo,0.033510553719614485,0.029237805522213733,0.8767679301066348,0.47885299440869883,-27.0,-8.375,21.125,0.08251953125,0.8779296875,-0.4873046875
1969/12/31/18:00:19.928,109,1730344912,840710269,RL_myo,0.031678819656493884,0.032960621607912716,0.8747993127492686,0.48232376286245604,-21.0625,-3.125,20.875,0.03759765625,0.8779296875,-0.54052734375
1969/12/31/18:00:19.951,110,1730344912,863962483,RL_myo,0.028992507219198625,0.03588967209450272,0.8741088334445126,0.4835339835589295,-6.4375,2.0,17.1875,0.0712890625,0.8935546875,-0.55029296875
1969/12/31/18:00:19.989,111,1730344912,901542559,RL_myo,0.02612364504792781,0.03826991926413723,0.8744707070132283,0.48286017750971233,8.1875,4.875,15.0625,0.0693359375,0.90673828125,-0.52197265625
1969/12/31/18:00:19.991,112,1730344912,904001516,RL_myo,0.024476139554982557,0.04046803123429785,0.8745489464932421,0.4826255248410152,3.8125,0.75,13.125,0.0361328125,0.9970703125,-0.59912109375
1969/12/31/18:00:20.011,113,1730344912,923868832,RL_myo,0.023255286215328755,0.04278728513633978,0.8730193142725647,0.4852480981938677,-14.25,-2.625,11.5,0.06689453125,1.0322265625,-0.603515625
1969/12/31/18:00:20.033,114,1730344912,946343147,RL_myo,0.02148552112051395,0.04565673238109215,0.8708350279158311,0.48897872072851495,-23.0625,-1.4375,15.875,0.08251953125,0.88134765625,-0.52001953125
1969/12/31/18:00:20.048,115,1730344912,960725812,RL_myo,0.018494184850203276,0.04846330947545017,0.8693487617869481,0.49146922908857027,-17.875,4.1875,17.375,0.10986328125,0.82470703125,-0.53466796875
1969/12/31/18:00:20.071,116,1730344912,983931390,RL_myo,0.01513735056823226,0.05041714342483809,0.8692989790030801,0.4914755918363152,0.3125,8.4375,14.5625,0.10205078125,0.87841796875,-0.5458984375
1969/12/31/18:00:20.094,117,1730344913,6613308,RL_myo,0.01275678078559743,0.051576458200142714,0.8697194708802763,0.4906782810307068,10.125,8.1875,12.0625,0.03125,0.9970703125,-0.533203125
1969/12/31/18:00:20.108,118,1730344913,20686073,RL_myo,0.011414364344048461,0.05249386810631913,0.8698111866454042,0.49045143050497003,4.875,4.0625,8.5,0.0322265625,0.9892578125,-0.5478515625
1969/12/31/18:00:20.131,119,1730344913,43839925,RL_myo,0.009339047154398431,0.05377582054264717,0.8694469782173284,0.4910019301305946,-3.5625,4.9375,9.25,0.09375,0.9267578125,-0.56884765625
1969/12/31/18:00:20.154,120,1730344913,66700011,RL_myo,0.00634806319251183,0.05530139665784345,0.868585954129263,0.49240217090377825,-8.75,8.6875,12.6875,0.10791015625,0.94091796875,-0.57470703125
1969/12/31/18:00:20.168,121,1730344913,80709125,RL_myo,0.004516859134786434,0.05578931417830812,0.868152533433344,0.4931311479721568,-5.1875,7.875,7.625,0.05078125,0.9013671875,-0.5537109375
1969/12/31/18:00:20.191,122,1730344913,104032913,RL_myo,0.003784400094828761,0.05597249817674151,0.8679704733623383,0.4934369413967049,-0.5,4.0,4.5,0.0283203125,0.9091796875,-0.52392578125
1969/12/31/18:00:20.213,123,1730344913,126390488,RL_myo,0.002868797847028042,0.05658245966372329,0.8676587530958216,0.49392153570533864,-1.9375,1.75,3.5,0.08740234375,0.9384765625,-0.5400390625
1969/12/31/18:00:20.228,124,1730344913,140767079,RL_myo,0.0015869615238816533,0.0568864669329885,0.8670913618562603,0.49488784752432485,-4.6875,4.3125,3.1875,0.09716796875,0.96484375,-0.5498046875
1969/12/31/18:00:20.258,125,1730344913,171222719,RL_myo,0.001709048266038034,0.05688689228383742,0.8669147329477928,0.49519673508452033,-1.1875,1.875,3.375,-0.0048828125,0.921875,-0.533203125
1969/12/31/18:00:20.274,126,1730344913,186417798,RL_myo,0.0014648668962792622,0.057129808954891226,0.8673232748386798,0.4944536136149293,4.75,0.75,3.125,0.03515625,0.8779296875,-0.5244140625
1969/12/31/18:00:20.288,127,1730344913,200813221,RL_myo,0.0,0.05737479217719758,0.8680683982384084,0.4931180276591268,9.0625,4.25,1.375,0.115234375,0.8515625,-0.51220703125
1969/12/31/18:00:20.311,128,1730344913,223964652,RL_myo,-0.001220770073864788,0.057498270479031506,0.8688831000732627,0.4916651472490433,11.375,3.1875,0.875,0.10400390625,0.84423828125,-0.48681640625
1969/12/31/18:00:20.334,129,1730344913,246461365,RL_myo,-0.0010376584210631092,0.05737640681172486,0.8699239892347901,0.48983581347243826,11.3125,-0.5,-0.6875,0.0458984375,0.853515625,-0.53369140625
1969/12/31/18:00:20.348,130,1730344913,260841046,RL_myo,-0.0003051820961814059,0.05792356185523085,0.8703793383093698,0.4889627545018486,5.125,-5.25,1.125,0.048828125,0.869140625,-0.537109375
1969/12/31/18:00:20.371,131,1730344913,283875471,RL_myo,-0.0012818007432041625,0.05969529175493671,0.8699764758518537,0.48946476951210377,-3.125,-3.125,6.5,0.14208984375,0.8154296875,-0.49169921875
1969/12/31/18:00:20.394,132,1730344913,306893181,RL_myo,-0.002746772424202456,0.06171082046374851,0.8702385433745425,0.4887423733464237,-0.25,0.1875,11.6875,0.09912109375,0.76171875,-0.55419921875
1969/12/31/18:00:20.416,133,1730344913,329145530,RL_myo,-0.004943933243515515,0.06366077003687262,0.871230902690623,0.48670276152830516,5.9375,4.125,13.125,0.10791015625,0.83642578125,-0.646484375
1969/12/31/18:00:20.431,134,1730344913,344118202,RL_myo,-0.00567667724412262,0.06470191267494599,0.8713394372026925,0.48636305678676384,-2.6875,2.4375,9.9375,0.03759765625,0.9208984375,-0.6572265625
1969/12/31/18:00:20.454,135,1730344913,366453134,RL_myo,-0.005005058482237313,0.06640858083749021,0.869720467236579,0.48903083609372383,-20.625,-4.0,11.875,0.00244140625,0.95947265625,-0.62451171875
1969/12/31/18:00:20.475,136,1730344913,387465788,RL_myo,-0.0043946609051169734,0.06872761359946823,0.8675793070185092,0.4925072061581786,-25.3125,-8.0625,10.0625,0.07666015625,0.83056640625,-0.5341796875
1969/12/31/18:00:20.491,137,1730344913,403816178,RL_myo,-0.005127078545738247,0.07037525670519285,0.8675138972687823,0.49238265033893386,-19.5625,-0.8125,7.875,0.13330078125,0.978515625,-0.919921875
1969/12/31/18:00:20.514,138,1730344913,426658744,RL_myo,-0.0015869882479085955,0.07031578698425778,0.8644202910339049,0.4978260057670194,-19.25,-20.625,-15.6875,0.20361328125,1.15966796875,-0.38623046875
1969/12/31/18:00:20.542,139,1730344913,455002701,RL_myo,-0.00030519438495982493,0.07056094180271152,0.8635169928053287,0.49935905267126557,-18.5,-4.375,0.3125,0.02001953125,0.7041015625,-0.541015625
1969/12/31/18:00:20.551,140,1730344913,464010124,RL_myo,-0.0006103782590578101,0.07171944543929268,0.8639904256963301,0.49837384852070193,8.9375,2.4375,14.875,-0.0546875,1.00732421875,-0.54443359375
1969/12/31/18:00:20.574,141,1730344913,486318446,RL_myo,0.00195320208969679,0.07037631279438747,0.8665503146070415,0.49409909112798484,25.25,-10.25,-14.9375,0.060546875,0.8935546875,-0.5693359375
1969/12/31/18:00:20.595,142,1730344913,507392375,RL_myo,0.0026857097921482317,0.07037780432606616,0.868033612594091,0.4914848919631264,28.3125,-9.625,-9.25,0.1865234375,0.97314453125,-0.39697265625
1969/12/31/18:00:20.611,143,1730344913,523926486,RL_myo,0.0018921974636622431,0.06933988124904221,0.8683965585652494,0.49099472250642207,13.375,3.8125,-6.6875,0.13427734375,0.9912109375,-0.443359375
1969/12/31/18:00:20.634,144,1730344913,546836812,RL_myo,0.0009155749680399037,0.06781358596615554,0.8682092230266394,0.491541681175023,1.625,8.5625,-5.5,0.0791015625,0.88427734375,-0.46240234375
1969/12/31/18:00:20.655,145,1730344913,567530889,RL_myo,-0.00018311915294952623,0.06714368941482629,0.8682899835690036,0.49149180651652846,2.25,7.3125,-0.1875,0.060546875,0.8095703125,-0.4619140625
1969/12/31/18:00:20.671,146,1730344913,583955840,RL_myo,-0.0016480488068736376,0.06573883574084843,0.8671178277943294,0.493743214770402,-14.0,10.125,-5.3125,0.11572265625,0.84130859375,-0.505859375
1969/12/31/18:00:20.693,147,1730344913,606231765,RL_myo,-0.0034791553183527524,0.06463904354623798,0.8654551448933978,0.49678675677321144,-26.5,12.5625,-2.5,0.11181640625,0.87646484375,-0.634765625
1969/12/31/18:00:20.715,148,1730344913,627409619,RL_myo,-0.0050050033917532575,0.06378327493148968,0.8620202792894055,0.5028197309910163,-44.3125,10.3125,-2.8125,0.142578125,0.8935546875,-0.5966796875
1969/12/31/18:00:20.739,149,1730344913,651386790,RL_myo,-0.006714122352826378,0.06360104992404624,0.8565388997928415,0.5121044230928483,-73.0,9.4375,-1.9375,0.201171875,0.87353515625,-0.66845703125
1969/12/31/18:00:20.754,150,1730344913,666371862,RL_myo,-0.009949093194959666,0.06146464323511892,0.8489079027944726,0.5248604440702955,-96.0,21.1875,-11.5,0.29345703125,0.94775390625,-0.669921875
1969/12/31/18:00:20.775,151,1730344913,687534064,RL_myo,-0.010254563370333156,0.055240356250901824,0.8373339304418467,0.54379705396606,-129.0,26.0625,-29.625,0.2998046875,1.0439453125,-0.62939453125
1969/12/31/18:00:20.790,152,1730344913,703307052,RL_myo,-0.010437285956535354,0.04571653322482444,0.8214327158073262,0.5683743089313287,-170.375,37.8125,-46.0625,0.35546875,1.02197265625,-0.59423828125
1969/12/31/18:00:20.821,153,1730344913,733939887,RL_myo,-0.012939989443257516,0.031800634433665875,0.8011806671330102,0.5974368710877573,-204.8125,63.8125,-60.75,0.48388671875,0.9853515625,-0.50048828125
1969/12/31/18:00:20.835,154,1730344913,747450955,RL_myo,-0.018494837334939344,0.012635086892186283,0.7783091447452527,0.6274816099114734,-217.0625,96.125,-76.0,0.56982421875,0.85888671875,-0.35205078125
1969/12/31/18:00:20.850,155,1730344913,763148104,RL_myo,-0.0268570521429481,-0.009461007004902171,0.7549273202363229,0.655189994778193,-209.1875,119.625,-79.6875,0.6025390625,0.61474609375,-0.3193359375
1969/12/31/18:00:20.874,156,1730344913,786928818,RL_myo,-0.03650094524562348,-0.03412044881656108,0.7358785884301617,0.6752674870440344,-159.3125,135.125,-84.5,0.59033203125,0.57080078125,-0.27001953125
1969/12/31/18:00:20.895,157,1730344913,807418450,RL_myo,-0.04437452720768426,-0.06378456799453927,0.7258012421273364,0.6835020022993787,-71.5625,147.75,-107.8125,0.53955078125,0.6279296875,-0.16357421875
1969/12/31/18:00:20.910,158,1730344913,823135218,RL_myo,-0.04889141494493265,-0.09802698177473387,0.7211025919593438,0.6841135814017543,-14.0625,153.5,-135.1875,0.45947265625,0.64501953125,-0.04296875
1969/12/31/18:00:20.934,159,1730344913,846402682,RL_myo,-0.0505389179495445,-0.13354970105507652,0.7159680042852138,0.6833740644481887,-6.6875,147.625,-151.8125,0.40869140625,0.7041015625,0.05908203125
1969/12/31/18:00:20.956,160,1730344913,868857857,RL_myo,-0.050906093588239096,-0.16809997810792623,0.7053606924528669,0.6867439555890624,-42.8125,137.3125,-156.3125,0.2802734375,0.734375,0.14013671875
1969/12/31/18:00:20.978,161,1730344913,891277268,RL_myo,-0.04962378084035934,-0.1991665398303721,0.689666789317614,0.6944277424609695,-81.0625,114.3125,-151.0,0.0263671875,0.70556640625,0.07421875
1969/12/31/18:00:20.994,162,1730344913,906432070,RL_myo,-0.04510544474044894,-0.22601550997819,0.6713936294248151,0.7043529530511241,-97.1875,83.5,-148.0625,-0.16162109375,0.65869140625,0.10888671875
1969/12/31/18:00:21.016,163,1730344913,928912432,RL_myo,-0.035827869956964783,-0.24878091643030403,0.6530804234063428,0.7143601192100781,-91.4375,48.8125,-152.375,-0.142578125,0.59033203125,0.2119140625
1969/12/31/18:00:21.030,164,1730344913,943221610,RL_myo,-0.024171018996757544,-0.26759027091359866,0.6323529212283034,0.726595480144954,-106.3125,21.4375,-150.5,-0.16748046875,0.47900390625,0.263671875
1969/12/31/18:00:21.053,165,1730344913,966214382,RL_myo,-0.013488878322911771,-0.280275698003669,0.6112109842789072,0.7400572383045485,-113.75,-1.8125,-121.0,-0.4111328125,0.3759765625,0.3544921875
1969/12/31/18:00:21.076,166,1730344913,988861748,RL_myo,-0.0012207284711329934,-0.2870542999869234,0.5921753813466151,0.7529453209948304,-87.4375,-28.1875,-82.25,-0.60302734375,0.41455078125,0.359375
1969/12/31/18:00:21.098,167,1730344914,11327774,RL_myo,0.010132414433175288,-0.28431799054054513,0.5773034681263366,0.7653635215517165,-68.4375,-64.875,-42.1875,-0.63427734375,0.54541015625,0.42236328125
1969/12/31/18:00:21.113,168,1730344914,26160583,RL_myo,0.015808108001011234,-0.2694092228434887,0.559204191140019,0.7838746372856651,-127.4375,-114.875,0.625,-0.62451171875,0.64404296875,0.37841796875
1969/12/31/18:00:21.136,169,1730344914,48773284,RL_myo,0.014892781710013802,-0.24469328637477597,0.53833743722263,0.8062854360216489,-165.0,-146.5,58.9375,-0.79541015625,0.84228515625,0.28759765625
1969/12/31/18:00:21.157,170,1730344914,69871179,RL_myo,0.011597406612641019,-0.20747150040193063,0.5177936857633355,0.8298860016077225,-168.8125,-200.5,113.0625,-0.9677734375,0.783203125,0.400390625
1969/12/31/18:00:21.181,171,1730344914,93816651,RL_myo,0.013062161901160359,-0.16034719305770215,0.4888544610579127,0.8574027487177549,-211.9375,-266.875,108.875,-0.7607421875,0.56689453125,0.5537109375
1969/12/31/18:00:21.196,172,1730344914,108758825,RL_myo,0.019715175496460194,-0.10870813485819072,0.46046837134766466,0.8807739393619832,-195.0,-299.8125,93.4375,-0.58544921875,0.75244140625,0.55224609375
1969/12/31/18:00:21.217,173,1730344914,129899254,RL_myo,0.02764954148595944,-0.05505493691023271,0.4387304728500584,0.8965043385116386,-140.1875,-308.5,95.5,-0.50927734375,0.74609375,0.62353515625
1969/12/31/18:00:21.233,174,1730344914,146339003,RL_myo,0.03387552395327857,-0.001953183363071918,0.42158242152305425,0.9061550065051779,-100.5,-300.25,104.375,-0.54150390625,0.78662109375,0.7900390625
1969/12/31/18:00:21.256,175,1730344914,169177814,RL_myo,0.03637871474092089,0.04925775636899858,0.4062086352362894,0.9117262786663343,-83.9375,-280.75,117.9375,-0.3984375,0.9208984375,0.80908203125
1969/12/31/18:00:21.294,176,1730344914,206933098,RL_myo,0.03259362867562306,0.09778088602686917,0.39234427926386706,0.9140254483472945,-69.125,-253.9375,145.3125,-0.4287109375,0.99951171875,0.73583984375
1969/12/31/18:00:21.296,177,1730344914,209336930,RL_myo,0.02435358575745998,0.14526700276379637,0.38062396186345976,0.9129237648479421,-48.9375,-240.9375,165.75,-0.4296875,0.96484375,0.646484375
1969/12/31/18:00:21.316,178,1730344914,228874001,RL_myo,0.014526686422023162,0.1902507629304462,0.37171227021059267,0.9085282663521629,-26.125,-225.3125,164.5625,-0.224609375,0.93212890625,0.62841796875
1969/12/31/18:00:21.338,179,1730344914,250681220,RL_myo,0.002258460658745793,0.22834868444237869,0.36312385023996546,0.9033232240210538,-18.625,-182.0,157.875,0.15771484375,0.83251953125,0.66650390625
1969/12/31/18:00:21.354,180,1730344914,266453064,RL_myo,-0.011902158418790856,0.25873461301156125,0.35559987152756684,0.8980331118752302,-9.6875,-138.4375,150.5,0.2275390625,0.80419921875,0.72998046875
1969/12/31/18:00:21.376,181,1730344914,288845792,RL_myo,-0.027161479214149492,0.28601953167978544,0.35132915585762803,0.891079629319929,12.375,-124.9375,147.4375,0.10888671875,0.81982421875,0.73193359375
1969/12/31/18:00:21.397,182,1730344914,309894264,RL_myo,-0.04242050488380265,0.3112871581401345,0.3462001492099692,0.8839944924203076,6.875,-110.5,141.875,0.5771484375,0.96435546875,0.69677734375
1969/12/31/18:00:21.413,183,1730344914,326342076,RL_myo,-0.0510886699903152,0.32337846309281953,0.326308279292981,0.8867577032488642,-95.8125,-36.125,106.1875,0.7119140625,0.96533203125,0.83447265625
1969/12/31/18:00:21.443,184,1730344914,356374206,RL_myo,-0.05713162609349452,0.3335119711269809,0.300612455673569,0.8917050487178008,-130.3125,-26.875,97.4375,0.65478515625,0.66748046875,0.95068359375
1969/12/31/18:00:21.457,185,1730344914,370064787,RL_myo,-0.06378631386729534,0.3416993158173391,0.27888963450686355,0.8952058173949794,-103.8125,-20.25,88.375,0.62109375,0.40234375,0.91650390625
1969/12/31/18:00:21.482,186,1730344914,395356392,RL_myo,-0.07324717868042603,0.34603187994944595,0.261675545835822,0.898010410622023,-67.875,-2.5,84.1875,0.580078125,0.28466796875,0.69921875
1969/12/31/18:00:21.496,187,1730344914,408908102,RL_myo,-0.08490228448259177,0.3510840692623062,0.2491524983881665,0.8985847822808887,-39.6875,-7.5,90.625,0.47900390625,0.244140625,0.56396484375
1969/12/31/18:00:21.517,188,1730344914,429909377,RL_myo,-0.09948933833680611,0.3587719820513781,0.2412769045677267,0.896197518281794,-10.0625,-20.0,101.875,0.6162109375,0.2041015625,0.576171875
1969/12/31/18:00:21.533,189,1730344914,445863405,RL_myo,-0.11615612603813441,0.3659253681548165,0.23811090261416834,0.8921376448625185,25.0,-15.5625,95.0625,0.86962890625,0.2392578125,0.669921875
1969/12/31/18:00:21.556,190,1730344914,469009968,RL_myo,-0.12927723507916483,0.3693984073178025,0.23859523698038496,0.8887657318166757,33.25,-0.375,68.0,0.93115234375,0.3251953125,0.65673828125
1969/12/31/18:00:21.577,191,1730344914,489987914,RL_myo,-0.13923113893781916,0.37032675139664567,0.24275416026116034,0.8857444353909223,44.5625,7.5,42.6875,0.8271484375,0.3193359375,0.5390625
1969/12/31/18:00:21.593,192,1730344914,506382128,RL_myo,-0.1472210742303644,0.36963964574589003,0.24762682344634673,0.883387482311801,42.75,13.3125,30.375,0.7802734375,0.33447265625,0.49560546875
1969/12/31/18:00:21.616,193,1730344914,528876253,RL_myo,-0.1532008315550044,0.3695741175559967,0.2521404920931168,0.8811184080988221,40.25,6.8125,16.9375,0.7626953125,0.23974609375,0.50390625
1969/12/31/18:00:21.637,194,1730344914,549873660,RL_myo,-0.15656490964710332,0.3709337060138195,0.2545324262099107,0.8792660910200871,27.3125,-3.6875,5.125,0.75,0.13671875,0.52685546875
1969/12/31/18:00:21.653,195,1730344914,565743929,RL_myo,-0.15888276428160508,0.372577945898931,0.25703239354200497,0.8774259456581148,25.25,-8.4375,0.25,0.70849609375,0.12646484375,0.51806640625
1969/12/31/18:00:21.676,196,1730344914,588871356,RL_myo,-0.1611375569158424,0.3745227459225791,0.26074986482745405,0.8750868005691032,34.0,-14.0,-3.25,0.71728515625,0.1025390625,0.5517578125
1969/12/31/18:00:21.697,197,1730344914,610012460,RL_myo,-0.16009778539461877,0.376043635461779,0.2697186861070608,0.871901206390442,59.6875,-27.9375,-34.4375,0.6357421875,0.00439453125,0.55908203125
1969/12/31/18:00:21.713,198,1730344914,625742954,RL_myo,-0.15967737530436665,0.37703637127487494,0.2933522422449488,0.8638814574475158,130.375,-43.5,-47.25,0.93310546875,0.24853515625,0.591796875
1969/12/31/18:00:21.736,199,1730344914,648851686,RL_myo,-0.15753685704913173,0.37360833087862666,0.31366985988976676,0.8586094413444929,107.4375,-15.5,-55.1875,0.89404296875,0.5166015625,0.54931640625
