time,.header.seq,.header.stamp.secs,.header.stamp.nsecs,.header.frame_id,.orientation.x,.orientation.y,.orientation.z,.orientation.w,.angular_velocity.x,.angular_velocity.y,.angular_velocity.z,.linear_acceleration.x,.linear_acceleration.y,.linear_acceleration.z
1969/12/31/18:00:08.331000,1,1730344901,244142295,RL_myo,-0.2117995660766448,0.267648731194838,0.4530191295160975,0.8235768141418356,38.375,7.6875,-15.125,0.7099609375,0.48388671875,0.58349609375
1969/12/31/18:00:08.348000,2,1730344901,260526021,RL_myo,-0.2144188175628179,0.2636136843307175,0.4603321155874674,0.8201382441194377,57.5625,9.5625,-9.875,0.576171875,0.48828125,0.44580078125
1969/12/31/18:00:08.363000,3,1730344901,275563673,RL_myo,-0.2171691273637714,0.2603221833070504,0.4685188930984569,0.8158185936886367,58.5,6.9375,-4.3125,0.61376953125,0.59619140625,0.400390625
1969/12/31/18:00:08.384000,4,1730344901,296682230,RL_myo,-0.2196765938832101,0.2556891502575068,0.4776241586930033,0.8113201683511054,70.0625,8.125,-14.6875,0.83251953125,0.7490234375,0.59912109375
1969/12/31/18:00:08.406000,5,1730344901,319124300,RL_myo,-0.2233957458060385,0.2472002105230754,0.4913485665952486,0.8047129816138829,102.0625,23.3125,-25.25,1.33154296875,0.8037109375,0.8134765625
1969/12/31/18:00:08.423000,6,1730344901,335648109,RL_myo,-0.2307890240223221,0.2293240844358276,0.5057093530877914,0.7990024661338793,118.6875,76.3125,-33.3125,1.25439453125,1.08203125,0.83447265625
1969/12/31/18:00:08.444000,7,1730344901,356660928,RL_myo,-0.2340798857501447,0.2009974090678557,0.5160744286877377,0.7990455761030365,90.875,123.9375,-79.875,0.927734375,1.29736328125,0.822265625
1969/12/31/18:00:08.466000,8,1730344901,379116919,RL_myo,-0.2300477142008495,0.1660201068257656,0.5170427665150958,0.8075779534601857,23.125,154.0625,-131.875,0.74365234375,1.4072265625,0.8857421875
1969/12/31/18:00:08.483000,9,1730344901,395624330,RL_myo,-0.2168627905952167,0.1223172058409272,0.5096550243371967,0.8235658974109934,-37.625,185.5625,-198.9375,0.25244140625,1.29052734375,0.6630859375
1969/12/31/18:00:08.504000,10,1730344901,416606323,RL_myo,-0.2006872324407664,0.0739759506442241,0.489205647205822,0.8455353500614163,-116.5,219.9375,-224.125,-0.03564453125,1.05029296875,0.349609375
1969/12/31/18:00:08.528000,11,1730344901,440683774,RL_myo,-0.1918444984958423,0.0310686763392885,0.4685327300203901,0.8618047961383387,-105.8125,213.125,-169.3125,-0.02099609375,0.90771484375,0.21875
1969/12/31/18:00:08.543000,12,1730344901,455621022,RL_myo,-0.1797552805726049,-0.0072024187122469,0.461198947370663,0.8688680539731852,-20.125,168.8125,-171.0,0.2958984375,0.685546875,0.154296875
1969/12/31/18:00:08.571000,13,1730344901,484177471,RL_myo,-0.1625424396181773,-0.0550556817632729,0.4710251620478687,0.8652653488649199,104.1875,181.875,-205.875,-0.12060546875,0.6240234375,0.0966796875
1969/12/31/18:00:08.586000,14,1730344901,499175351,RL_myo,-0.1420933178433976,-0.1061427318426411,0.4937254501869602,0.8513391740892227,199.9375,177.75,-213.3125,-0.44677734375,0.72216796875,0.10107421875
1969/12/31/18:00:08.612000,15,1730344901,524639849,RL_myo,-0.1182934072960765,-0.1576024652417283,0.5162060606310213,0.833486314049497,210.8125,171.4375,-225.5625,-0.6953125,0.91259765625,0.0322265625
1969/12/31/18:00:08.624000,16,1730344901,536688311,RL_myo,-0.0948519130257293,-0.2074046335015625,0.5341371241236533,0.8140540309035728,195.3125,169.9375,-221.3125,-0.81201171875,0.9208984375,0.16552734375
1969/12/31/18:00:08.646000,17,1730344901,559188092,RL_myo,-0.075806798339946,-0.2543373016767755,0.5474325074967602,0.7936520119277927,173.6875,175.0625,-197.375,-0.8525390625,0.82080078125,0.2724609375
1969/12/31/18:00:08.664000,18,1730344901,576856668,RL_myo,-0.0626853546679961,-0.2967635777953233,0.5582475694191745,0.7722445056080688,156.125,176.9375,-159.0,-0.92236328125,0.8056640625,0.30224609375
1969/12/31/18:00:08.694000,19,1730344901,607132434,RL_myo,-0.0534087126199151,-0.3328430970473112,0.5683907793333142,0.750529748999402,146.1875,163.0625,-121.875,-1.00146484375,0.74072265625,0.28955078125
1969/12/31/18:00:08.706000,20,1730344901,619122834,RL_myo,-0.0458987715228513,-0.359621757729575,0.5789226700721349,0.730351994737287,138.3125,127.3125,-83.875,-0.98779296875,0.65234375,0.3466796875
1969/12/31/18:00:08.724000,21,1730344901,637024623,RL_myo,-0.0407725858181702,-0.3785502653357666,0.5877844332769159,0.7138254358435651,112.4375,96.3125,-54.5625,-0.81103515625,0.57568359375,0.34619140625
1969/12/31/18:00:08.751000,22,1730344901,664195645,RL_myo,-0.0405908899488756,-0.3908933221542852,0.5889036183860936,0.7062204461781822,58.0,79.875,-12.5625,-0.76806640625,0.59521484375,0.39794921875
1969/12/31/18:00:08.766000,23,1730344901,679167884,RL_myo,-0.045716856403445,-0.3965586329147966,0.5949905423508447,0.6975940611948916,57.0,66.3125,46.5,-0.72021484375,0.4150390625,0.2080078125
1969/12/31/18:00:08.784000,24,1730344901,696914736,RL_myo,-0.0537726651627588,-0.3953297982510655,0.6052324038069424,0.6888516447524357,56.9375,44.0,98.625,-0.6953125,0.16064453125,0.06689453125
1969/12/31/18:00:08.807000,25,1730344901,719549281,RL_myo,-0.0636610981545032,-0.3828211003116437,0.6214128862042162,0.680618317853179,67.1875,-0.375,129.0625,-0.560546875,0.1787109375,0.06982421875
1969/12/31/18:00:08.822000,26,1730344901,734710282,RL_myo,-0.0692766537962637,-0.3621307374213502,0.6436319949617628,0.6706712527870886,102.5625,-46.875,150.4375,-0.34814453125,0.42333984375,-0.02734375
1969/12/31/18:00:08.844000,27,1730344901,757007182,RL_myo,-0.0744651863207987,-0.3374127458863731,0.671712602836385,0.6552936396230286,146.625,-54.5,174.6875,-0.0673828125,0.3701171875,0.09423828125
1969/12/31/18:00:08.864000,28,1730344901,776644388,RL_myo,-0.0852679597885056,-0.3089056152395327,0.696426214163815,0.6421037487294772,114.875,-49.5,198.9375,0.193359375,0.328125,0.2197265625
1969/12/31/18:00:08.886000,29,1730344901,799169532,RL_myo,-0.0955252331890956,-0.2783355037330838,0.7176294994276023,0.6311990008999605,88.4375,-64.0,197.25,0.255859375,0.39111328125,-0.087890625
1969/12/31/18:00:08.904000,30,1730344901,817014728,RL_myo,-0.1007089896377571,-0.2465844352342659,0.7415233424903704,0.6157896948214131,121.625,-83.75,189.75,0.28076171875,0.47216796875,-0.2666015625
1969/12/31/18:00:08.924000,31,1730344901,836713791,RL_myo,-0.1055363056098345,-0.2172375428949688,0.7665268512714297,0.5950685039851225,151.8125,-70.8125,179.375,0.529296875,0.556640625,-0.21826171875
1969/12/31/18:00:08.942000,32,1730344901,854591257,RL_myo,-0.1104748993681808,-0.1937278069583458,0.7869352914662736,0.5753239786986035,136.0,-49.875,145.5625,0.68896484375,0.81201171875,-0.287109375
1969/12/31/18:00:08.971000,33,1730344901,883814125,RL_myo,-0.1173143292279593,-0.1741403648737607,0.8008747730489361,0.5608137653207549,87.75,-39.9375,98.0625,0.5537109375,1.02978515625,-0.43701171875
1969/12/31/18:00:08.991000,34,1730344901,904122770,RL_myo,-0.1214629788227426,-0.1621134028910575,0.8081865842170531,0.5529922553437431,40.125,-27.375,52.3125,0.45361328125,1.09423828125,-0.53173828125
1969/12/31/18:00:09.002000,35,1730344901,914608633,RL_myo,-0.1259803018083846,-0.1538131591846556,0.810570934115963,0.5508586355720306,-6.9375,-15.125,29.25,0.4462890625,1.03955078125,-0.623046875
1969/12/31/18:00:09.024000,36,1730344901,937035672,RL_myo,-0.1306210489036628,-0.1489934487728228,0.8086907836096395,0.5538576625008581,-36.125,-2.375,12.9375,0.359375,1.0673828125,-0.53564453125
1969/12/31/18:00:09.044000,37,1730344901,956646917,RL_myo,-0.1323290313991204,-0.1481377118107311,0.8046557292133784,0.5595296267692513,-45.1875,1.4375,-4.5,0.14697265625,1.0703125,-0.4423828125
1969/12/31/18:00:09.062000,38,1730344901,974591990,RL_myo,-0.1341587017229675,-0.1459998246229928,0.8017172643908912,0.5638571822187326,-37.5625,1.0,11.8125,0.02392578125,1.02294921875,-0.4306640625
1969/12/31/18:00:09.085000,39,1730344901,997398987,RL_myo,-0.1392211864791764,-0.1398925731741658,0.8009643271224165,0.5652465620270288,-28.125,3.625,43.25,0.0537109375,0.8525390625,-0.44873046875
1969/12/31/18:00:09.104000,40,1730344902,16680741,RL_myo,-0.1447761324796097,-0.132996286961665,0.8004191405301861,0.5662870814274109,-20.1875,1.3125,42.9375,0.1552734375,0.86767578125,-0.34521484375
1969/12/31/18:00:09.121000,41,1730344902,33768743,RL_myo,-0.148018256750086,-0.1300729505709003,0.8019232400753115,0.5639953370601216,14.4375,2.875,19.6875,0.19677734375,0.91259765625,-0.24951171875
1969/12/31/18:00:09.143000,42,1730344902,56283699,RL_myo,-0.1499072411396554,-0.1293987586384647,0.803615120865107,0.5612365970191903,19.4375,6.9375,13.0625,0.09423828125,0.974609375,-0.2880859375
1969/12/31/18:00:09.164000,43,1730344902,77379342,RL_myo,-0.151922860582571,-0.1296440963750023,0.8056977740819357,0.5576405200009519,20.9375,11.75,11.9375,0.08154296875,1.0302734375,-0.38232421875
1969/12/31/18:00:09.181000,44,1730344902,93802532,RL_myo,-0.1530821208177958,-0.1317189859349295,0.8070381983464499,0.5548921692003914,24.125,12.5625,-1.875,0.1162109375,1.20751953125,-0.3369140625
1969/12/31/18:00:09.203000,45,1730344902,116287334,RL_myo,-0.1522255568928527,-0.1362949753575542,0.8075767214311688,0.5532367472641609,20.0,13.375,-14.8125,0.0009765625,1.07373046875,-0.3046875
1969/12/31/18:00:09.224000,46,1730344902,137290240,RL_myo,-0.1519245405106707,-0.1359935219999093,0.807171604545243,0.5539843831558247,-11.25,3.75,15.1875,-0.1357421875,1.01806640625,-0.46630859375
1969/12/31/18:00:09.241000,47,1730344902,153815631,RL_myo,-0.1510691312889736,-0.1332460256985169,0.806617604033853,0.5556902510120467,-13.4375,-8.5,21.5625,-0.09228515625,1.10546875,-0.4296875
1969/12/31/18:00:09.263000,48,1730344902,176244127,RL_myo,-0.1488665861725271,-0.131410315715232,0.8080544216228321,0.5546333204386038,8.5625,-14.4375,9.1875,0.00439453125,0.88720703125,-0.3359375
1969/12/31/18:00:09.284000,49,1730344902,197325801,RL_myo,-0.147830308174557,-0.128847968850739,0.810197981300194,0.5523799706770195,13.8125,-10.75,17.9375,-0.00439453125,0.8427734375,-0.33935546875
1969/12/31/18:00:09.301000,50,1730344902,213821846,RL_myo,-0.1451416542802522,-0.1262207489703791,0.8149417022497594,0.5466920930984942,34.8125,-17.9375,17.1875,0.01123046875,0.85791015625,-0.43408203125
1969/12/31/18:00:09.323000,51,1730344902,236347006,RL_myo,-0.1440439968901984,-0.1239022515623317,0.8198300704360787,0.5401649883382442,42.3125,-12.8125,13.5625,0.1435546875,0.88037109375,-0.3916015625
1969/12/31/18:00:09.344000,52,1730344902,257312909,RL_myo,-0.1434972783712186,-0.122317543962536,0.8256434217471182,0.5317517180646776,49.0625,-6.0625,14.8125,0.13818359375,0.93212890625,-0.51806640625
1969/12/31/18:00:09.361000,53,1730344902,273727370,RL_myo,-0.1431339545155522,-0.1220148294569675,0.8310314672619376,0.5234613193711625,55.5,-1.0,11.625,0.09326171875,0.8779296875,-0.40185546875
1969/12/31/18:00:09.391000,54,1730344902,303729486,RL_myo,-0.144235786607942,-0.1209798260926538,0.8351392434912666,0.5168194689841071,38.0625,3.375,15.375,0.1357421875,0.89697265625,-0.48974609375
1969/12/31/18:00:09.404000,55,1730344902,317306721,RL_myo,-0.1446568015746131,-0.1208525177711957,0.8392535956333038,0.5100220396445009,42.9375,4.5625,13.625,0.0703125,0.90869140625,-0.46435546875
1969/12/31/18:00:09.420000,56,1730344902,333012594,RL_myo,-0.1438662532102194,-0.1203056364350201,0.8429939851872466,0.5041727838423472,35.875,-1.9375,11.625,0.06396484375,0.94775390625,-0.53515625
1969/12/31/18:00:09.443000,57,1730344902,356195864,RL_myo,-0.1424000904958775,-0.1202435397672005,0.8457942794690849,0.4998957313164325,32.25,-4.875,5.6875,0.06982421875,0.96728515625,-0.466796875
1969/12/31/18:00:09.464000,58,1730344902,377318441,RL_myo,-0.1408130191958123,-0.1198772300392611,0.8484793150589457,0.4958669128507931,23.4375,-4.875,7.0625,0.04052734375,0.8837890625,-0.54296875
1969/12/31/18:00:09.480000,59,1730344902,393023806,RL_myo,-0.1388606421324628,-0.1178636922891366,0.8502543933649266,0.4938555848324207,11.0625,-11.6875,13.0625,0.0244140625,0.88623046875,-0.5419921875
1969/12/31/18:00:09.503000,60,1730344902,416273961,RL_myo,-0.137948087630171,-0.1148753543893724,0.8513716487900995,0.4928897378821375,3.9375,-12.75,14.125,0.11474609375,0.88916015625,-0.51806640625
1969/12/31/18:00:09.526000,61,1730344902,438687271,RL_myo,-0.1389852577852942,-0.1120671643802372,0.8509413609068014,0.4939866891771568,-6.25,-5.5625,11.9375,0.181640625,0.8798828125,-0.4267578125
1969/12/31/18:00:09.540000,62,1730344902,453046726,RL_myo,-0.1395281451160501,-0.1112685076756602,0.8500474527695671,0.4955507481177651,-9.625,0.5625,5.0625,0.10791015625,0.90576171875,-0.46142578125
1969/12/31/18:00:09.571000,63,1730344902,483702866,RL_myo,-0.1384333252384692,-0.1114546965985206,0.8493385011875219,0.497029350712899,-7.625,-1.625,0.75,0.0244140625,0.90771484375,-0.470703125
1969/12/31/18:00:09.586000,64,1730344902,498769235,RL_myo,-0.1370948288758149,-0.1111530202060815,0.8491211774227347,0.497838568259638,-5.3125,-3.25,4.6875,-0.0009765625,0.9091796875,-0.505859375
1969/12/31/18:00:09.601000,65,1730344902,513705714,RL_myo,-0.1355658631338565,-0.1102350062223074,0.8483090345944791,0.4998418969847596,-10.75,-7.875,3.9375,0.03564453125,0.966796875,-0.49267578125
1969/12/31/18:00:09.623000,66,1730344902,536273077,RL_myo,-0.134400335567689,-0.1089485009029632,0.8468685994558063,0.5028721002462262,-17.0,-9.125,2.0625,0.091796875,0.98095703125,-0.4775390625
1969/12/31/18:00:09.646000,67,1730344902,558760288,RL_myo,-0.1345908037487326,-0.1077336819122508,0.8454499876297942,0.5054632407452404,-19.1875,-2.875,3.875,0.11669921875,0.90478515625,-0.48681640625
1969/12/31/18:00:09.660000,68,1730344902,573115083,RL_myo,-0.1364793820469088,-0.1062659231411754,0.8442067679296945,0.5073419604534466,-18.375,4.4375,9.1875,0.14013671875,0.869140625,-0.49365234375
1969/12/31/18:00:09.683000,69,1730344902,596283829,RL_myo,-0.1381295211933233,-0.1052299136267297,0.8433652648378918,0.5085095188075903,-15.0,5.0,7.125,0.14208984375,0.884765625,-0.5234375
1969/12/31/18:00:09.720000,70,1730344902,633043470,RL_myo,-0.137270979736262,-0.1053489155290299,0.8434627252002692,0.5085557150567076,-5.125,-0.625,1.875,0.05224609375,0.9365234375,-0.5615234375
1969/12/31/18:00:09.727000,71,1730344902,639858916,RL_myo,-0.1353163846316754,-0.1055309107028267,0.8437589991647638,0.5085503458507532,0.125,-4.75,1.9375,0.00732421875,1.02197265625,-0.5458984375
1969/12/31/18:00:09.743000,72,1730344902,656174026,RL_myo,-0.1369692104730548,-0.1048021989225647,0.8430564772967174,0.509422919165827,-8.9375,4.5625,4.3125,0.1796875,0.92724609375,-0.48388671875
1969/12/31/18:00:09.766000,73,1730344902,678754556,RL_myo,-0.1416667492606215,-0.1038238433831612,0.8413332493788913,0.5111844140705322,-19.0625,17.4375,10.0,0.224609375,0.89892578125,-0.47021484375
1969/12/31/18:00:09.787000,74,1730344902,699854337,RL_myo,-0.1431300847751929,-0.1044941173284138,0.8402254784713461,0.5124606361503284,-18.125,13.3125,5.25,0.0458984375,0.90869140625,-0.57470703125
1969/12/31/18:00:09.803000,75,1730344902,716299413,RL_myo,-0.1405048291961544,-0.1066908954973405,0.8402823560136657,0.5126412078273246,-8.1875,1.4375,-5.375,-0.0693359375,0.97998046875,-0.6513671875
1969/12/31/18:00:09.826000,76,1730344902,738833024,RL_myo,-0.1371465368937534,-0.1077274755752001,0.8403353448834878,0.5132466527545939,-9.875,-9.0,-9.0,0.0283203125,0.96337890625,-0.626953125
1969/12/31/18:00:09.847000,77,1730344902,759789757,RL_myo,-0.1348308869440038,-0.1073031685140601,0.8382831151149611,0.5172891656181225,-25.9375,-13.1875,-9.8125,0.1572265625,1.17138671875,-0.5810546875
1969/12/31/18:00:09.863000,78,1730344902,776201339,RL_myo,-0.1300079134628204,-0.1088892570974984,0.8357738774865731,0.5222289706985408,-30.9375,-17.5,-23.4375,0.07080078125,1.1650390625,-0.60498046875
1969/12/31/18:00:09.887000,79,1730344902,800234748,RL_myo,-0.1226219143090929,-0.1118795265946079,0.8341219915122268,0.5260107802467708,-24.25,-22.25,-30.625,-0.04736328125,1.08642578125,-0.6279296875
1969/12/31/18:00:09.907000,80,1730344902,819873113,RL_myo,-0.1149919286237214,-0.1141984599017955,0.834240807021775,0.5270463395253898,-5.125,-27.5,-30.5625,0.01806640625,1.03662109375,-0.5888671875
1969/12/31/18:00:09.923000,81,1730344902,836332437,RL_myo,-0.1062052633232745,-0.1167647521479449,0.8355424423174165,0.5262653910191223,9.8125,-33.25,-34.6875,0.01904296875,1.046875,-0.5693359375
1969/12/31/18:00:09.946000,82,1730344902,858706457,RL_myo,-0.0943651870876758,-0.1198181515220618,0.8371400652700348,0.5252954722357943,12.8125,-42.875,-38.875,-0.11376953125,1.06884765625,-0.6083984375
1969/12/31/18:00:09.967000,83,1730344902,879931871,RL_myo,-0.0813625816721613,-0.1220133539104655,0.8383458809205823,0.5250419561469857,10.875,-52.375,-41.3125,-0.1103515625,1.009765625,-0.5537109375
1969/12/31/18:00:09.983000,84,1730344902,896277197,RL_myo,-0.0687879558114104,-0.1235985896345218,0.8385172466168206,0.5261942919699818,3.0,-55.0,-42.3125,-0.07177734375,0.939453125,-0.47705078125
1969/12/31/18:00:10.006000,85,1730344902,918771606,RL_myo,-0.0556061207849513,-0.1252511085079256,0.8385476260632955,0.5273120499025192,1.75,-56.1875,-41.875,-0.134765625,0.86181640625,-0.46630859375
1969/12/31/18:00:10.035000,86,1730344902,947419436,RL_myo,-0.0428474204062412,-0.1260397765511226,0.8385765084919485,0.5282684097094268,2.5,-56.0,-35.375,-0.1748046875,0.77685546875,-0.41845703125
1969/12/31/18:00:10.043000,87,1730344902,956248119,RL_myo,-0.0322275368367466,-0.1251868902503168,0.8391366977871068,0.5283362857175732,9.625,-52.0625,-23.8125,-0.1240234375,0.7265625,-0.33935546875
1969/12/31/18:00:10.066000,88,1730344902,978728672,RL_myo,-0.0221562682222353,-0.1240873093548329,0.8413888634807538,0.5255247090728539,25.625,-47.875,-18.0625,-0.15087890625,0.68798828125,-0.37353515625
1969/12/31/18:00:10.087000,89,1730344902,999938724,RL_myo,-0.0114141690618237,-0.1218935594463207,0.8440381272026657,0.5221219366568992,36.625,-52.625,-13.5625,-0.19287109375,0.79248046875,-0.3271484375
1969/12/31/18:00:10.103000,90,1730344903,16171493,RL_myo,-0.0012817537496474,-0.1180434167532474,0.8473002644098145,0.5178285148575758,38.5,-55.625,-5.0,-0.16455078125,0.72900390625,-0.3662109375
1969/12/31/18:00:10.126000,91,1730344903,38818135,RL_myo,0.0068972342024673,-0.1115154591850247,0.8503740434404842,0.514179654173316,35.0,-57.1875,7.4375,-0.0771484375,0.7373046875,-0.3505859375
1969/12/31/18:00:10.147000,92,1730344903,59742530,RL_myo,0.013549965055636,-0.1049206753632358,0.8533426191119261,0.5105040888528825,33.75,-51.875,8.8125,-0.013671875,0.70068359375,-0.34716796875
1969/12/31/18:00:10.163000,93,1730344903,76157493,RL_myo,0.0211190887075796,-0.0985760932449166,0.855933470943323,0.5071633181250853,33.6875,-52.75,10.125,-0.11767578125,0.7451171875,-0.34130859375
1969/12/31/18:00:10.186000,94,1730344903,98951458,RL_myo,0.0299686616787571,-0.0908215245987589,0.8588371455840971,0.5032415795139564,32.875,-60.8125,18.3125,-0.2021484375,0.751953125,-0.4384765625
1969/12/31/18:00:10.207000,95,1730344903,119903628,RL_myo,0.0367445853591285,-0.0816071605069017,0.861483517871661,0.499836228415122,28.4375,-59.625,23.875,-0.07763671875,0.7099609375,-0.4287109375
1969/12/31/18:00:10.223000,96,1730344903,136250448,RL_myo,0.0408350093161878,-0.0737960033830659,0.862174150360468,0.4995421767469076,15.125,-45.5625,19.125,-0.01220703125,0.86669921875,-0.3701171875
1969/12/31/18:00:10.246000,97,1730344903,158733095,RL_myo,0.0455955068523053,-0.0666536726676271,0.8625913023250057,0.4994142397129349,8.875,-43.8125,20.875,-0.13037109375,0.853515625,-0.44140625
1969/12/31/18:00:10.267000,98,1730344903,179923074,RL_myo,0.0494398879381605,-0.0584733489441454,0.8633669319571374,0.4987324991885309,7.9375,-43.25,27.375,-0.0966796875,0.783203125,-0.4765625
1969/12/31/18:00:10.283000,99,1730344903,196249072,RL_myo,0.0517600229520095,-0.0498678523016412,0.8642947228778947,0.4978239943356009,13.1875,-38.875,29.3125,-0.015625,0.77978515625,-0.41015625
1969/12/31/18:00:10.306000,100,1730344903,218706294,RL_myo,0.0526134507141887,-0.0420541386799025,0.8654363314112317,0.4964707750686902,17.25,-30.0625,27.625,0.01171875,0.8095703125,-0.392578125
1969/12/31/18:00:10.327000,101,1730344903,239781791,RL_myo,0.0535916464099974,-0.0348528816629938,0.8665610524860298,0.4949597502718332,15.875,-26.875,28.4375,-0.0517578125,0.8544921875,-0.45751953125
1969/12/31/18:00:10.343000,102,1730344903,255578620,RL_myo,0.0540190400451129,-0.0279556162041375,0.8677227946681654,0.4933128606153709,13.875,-25.0,25.6875,-0.00537109375,0.84912109375,-0.50146484375
1969/12/31/18:00:10.367000,103,1730344903,280200947,RL_myo,0.0535301625499976,-0.0217904994644802,0.8681408232025274,0.4929413828435359,7.75,-20.0,22.9375,0.03125,0.88671875,-0.47998046875
1969/12/31/18:00:10.394000,104,1730344903,307256448,RL_myo,0.0530411379758844,-0.0155644305913124,0.8675796722545702,0.4942164490112041,-2.8125,-18.5,26.5625,-0.0126953125,0.9052734375,-0.4794921875
1969/12/31/18:00:10.409000,105,1730344903,322285179,RL_myo,0.0524319419353049,-0.0090336756768627,0.8666224814871479,0.4961197020374376,-9.0625,-19.125,29.25,-0.01513671875,0.8984375,-0.50732421875
1969/12/31/18:00:10.426000,106,1730344903,338644175,RL_myo,0.0510899801292379,-0.0031130095419248,0.8654776920579023,0.4983256843191137,-6.75,-15.25,24.8125,0.04833984375,0.92529296875,-0.44189453125
1969/12/31/18:00:10.447000,107,1730344903,359919573,RL_myo,0.0497471677604836,0.0020143024982772,0.8645020085788102,0.5001574142692065,-6.3125,-11.375,23.5625,0.01708984375,0.89013671875,-0.44384765625
1969/12/31/18:00:10.463000,108,1730344903,375506167,RL_myo,0.0481603199996814,0.0072026841064162,0.8641389736824969,0.5008917438750138,-2.375,-10.375,25.125,0.00830078125,0.8994140625,-0.49853515625
1969/12/31/18:00:10.486000,109,1730344903,398724583,RL_myo,0.0459604586144528,0.0122683295903121,0.863543915640477,0.5020249297528218,-2.875,-8.125,23.375,0.06201171875,0.9462890625,-0.48583984375
1969/12/31/18:00:10.508000,110,1730344903,421241291,RL_myo,0.0431528600505043,0.0163578026782675,0.8628740912786131,0.5033076152425157,-1.25,-2.0625,20.125,0.0712890625,0.98291015625,-0.46044921875
1969/12/31/18:00:10.523000,111,1730344903,435593586,RL_myo,0.0408949215537609,0.0200202004024381,0.8623335100172156,0.5042893162345863,-3.5625,-2.4375,19.9375,0.02783203125,0.96826171875,-0.51611328125
1969/12/31/18:00:10.553000,112,1730344903,466334059,RL_myo,0.0385152303244961,0.0239880911529746,0.8611907839117526,0.5062524886075609,-8.8125,-4.125,18.75,0.07958984375,1.01611328125,-0.51318359375
1969/12/31/18:00:10.569000,113,1730344903,481261085,RL_myo,0.0363776061879761,0.0269169871290225,0.8596956093249053,0.5087981966157196,-12.8125,-1.9375,13.625,0.08740234375,1.013671875,-0.50390625
1969/12/31/18:00:10.583000,114,1730344903,495585435,RL_myo,0.0341204239006836,0.0290542428921742,0.858076778525601,0.51156220520864,-13.0,1.1875,11.0625,0.078125,0.986328125,-0.4609375
1969/12/31/18:00:10.606000,115,1730344903,518744322,RL_myo,0.0313722609877561,0.0305787991339802,0.8569388020780098,0.5135529259746705,-12.1875,6.0625,10.5625,0.06640625,0.93310546875,-0.4921875
1969/12/31/18:00:10.628000,116,1730344903,541276084,RL_myo,0.0282610444811426,0.0320454608047514,0.8559495178381504,0.5152910097404027,-8.1875,8.5,11.625,0.0654296875,0.94140625,-0.4560546875
1969/12/31/18:00:10.643000,117,1730344903,555579294,RL_myo,0.0252700078452262,0.0329608797981212,0.855273792094953,0.5165091941698182,-3.0625,9.8125,9.125,0.060546875,0.978515625,-0.44970703125
1969/12/31/18:00:10.666000,118,1730344903,578796068,RL_myo,0.0234387401398778,0.0328996899359222,0.8541101322325799,0.5185210872090164,-6.0,8.8125,4.8125,0.005859375,1.06103515625,-0.43896484375
1969/12/31/18:00:10.688000,119,1730344903,601286427,RL_myo,0.0224013329562274,0.0327169331458798,0.8526545505873041,0.5209683291046345,-14.0625,6.4375,3.625,-0.0166015625,1.04443359375,-0.49853515625
1969/12/31/18:00:10.711000,120,1730344903,623698664,RL_myo,0.0200204670528732,0.0329605250260718,0.8516633438681114,0.5226684737004685,-9.0625,9.125,5.0,0.05419921875,0.93798828125,-0.44873046875
1969/12/31/18:00:10.726000,121,1730344903,638652582,RL_myo,0.0170296030740963,0.0322280660326984,0.851419115700967,0.5232177690005512,-0.9375,15.3125,2.3125,0.05859375,0.87451171875,-0.41357421875
1969/12/31/18:00:10.748000,122,1730344903,661278710,RL_myo,0.0158704272298754,0.0315577341455599,0.8522419422443093,0.52195393554871,10.1875,9.3125,3.375,-0.05224609375,0.94287109375,-0.45654296875
1969/12/31/18:00:10.763000,123,1730344903,675593125,RL_myo,0.0161140932318442,0.0313736512165452,0.8535586354322349,0.5198015831908547,13.9375,0.0,0.0625,-0.025390625,0.95849609375,-0.5029296875
1969/12/31/18:00:10.786000,124,1730344903,698694821,RL_myo,0.0153818615605709,0.0315572318524411,0.8534491600789793,0.5199923755337452,0.5625,0.5,-1.75,0.0810546875,0.962890625,-0.46875
1969/12/31/18:00:10.808000,125,1730344903,721258219,RL_myo,0.0145271477501138,0.0316179098090712,0.8526459114342018,0.5213292812341268,-7.1875,3.0625,0.625,0.04736328125,0.9287109375,-0.45166015625
1969/12/31/18:00:10.831000,126,1730344903,743795631,RL_myo,0.014648845016106,0.0313729430761603,0.8526238167916032,0.5213768088649061,-5.0625,1.0625,0.8125,-0.0302734375,0.8681640625,-0.52001953125
1969/12/31/18:00:10.846000,127,1730344903,758679949,RL_myo,0.0147707018874876,0.0320438780616984,0.8531606238979442,0.5204536156801953,2.625,-2.5,2.75,0.00341796875,0.86181640625,-0.498046875
1969/12/31/18:00:10.876000,128,1730344903,788715291,RL_myo,0.013306460831867,0.0332661520796677,0.8533836187629985,0.5200506710436126,3.375,0.9375,5.125,0.0927734375,0.86083984375,-0.4384765625
1969/12/31/18:00:10.883000,129,1730344903,795514268,RL_myo,0.0116584687031204,0.0339377413556804,0.8539370531762029,0.5191375723562263,5.375,5.5,7.5625,0.02734375,0.89404296875,-0.48046875
1969/12/31/18:00:10.912000,130,1730344903,824798134,RL_myo,0.0108035446116435,0.0344248540167625,0.8542735049975323,0.5185701413588907,1.4375,3.1875,5.875,-0.0029296875,0.92724609375,-0.5244140625
1969/12/31/18:00:10.934000,131,1730344903,847263769,RL_myo,0.0095220011483021,0.0351581580860386,0.8538061029644248,0.5193152933958626,-5.4375,3.3125,5.9375,0.0498046875,0.91845703125,-0.48974609375
1969/12/31/18:00:10.943000,132,1730344903,855584764,RL_myo,0.0078739603904973,0.0360126870573133,0.8533786063530475,0.5199865780360212,-4.375,5.125,8.0625,0.03955078125,0.88916015625,-0.46044921875
1969/12/31/18:00:10.966000,133,1730344903,878836594,RL_myo,0.0067751434093189,0.0371106954312246,0.853607032246178,0.5195497360371446,0.8125,2.6875,9.4375,0.01171875,0.90185546875,-0.4990234375
1969/12/31/18:00:10.988000,134,1730344903,901345223,RL_myo,0.0057986008602051,0.0385149172925204,0.8539202740449471,0.5189442580364646,1.9375,-0.5625,7.6875,0.0615234375,0.9228515625,-0.51953125
1969/12/31/18:00:11.027000,135,1730344903,939367295,RL_myo,0.0039674089385874,0.0397961635070621,0.853542255341652,0.5194864227125858,-2.125,3.0625,8.0625,0.095703125,0.96435546875,-0.47705078125
1969/12/31/18:00:11.029000,136,1730344903,941747044,RL_myo,0.0028078297318955,0.0404083322285842,0.8529088009516739,0.5204861766059489,-6.0,5.0,8.4375,0.01171875,0.97021484375,-0.49169921875
1969/12/31/18:00:11.049000,137,1730344903,961580998,RL_myo,0.0028077530779199,0.0407124196298391,0.851969944817534,0.5219979200515511,-11.5625,1.0625,4.8125,-0.00830078125,0.91796875,-0.49609375
1969/12/31/18:00:11.069000,138,1730344903,982295777,RL_myo,0.0021363192705283,0.0418108200089113,0.8516589366194742,0.5224216181843389,-4.875,-0.8125,5.4375,0.07177734375,0.88134765625,-0.47705078125
1969/12/31/18:00:11.086000,139,1730344903,998793306,RL_myo,0.0004272622185259,0.0427872593123834,0.8518387888211454,0.5220533935789092,0.5,3.6875,6.3125,0.095703125,0.86328125,-0.48046875
1969/12/31/18:00:11.108000,140,1730344904,21171856,RL_myo,-0.0011597212910996,0.0433979914722014,0.8520289211820821,0.5216914671067595,2.5,6.3125,8.875,0.029296875,0.92138671875,-0.47021484375
1969/12/31/18:00:11.129000,141,1730344904,42250330,RL_myo,-0.0026246405753303,0.044130584557299,0.8523978054532246,0.5210216732795364,2.9375,6.125,10.25,0.01123046875,0.91455078125,-0.50341796875
1969/12/31/18:00:11.145000,142,1730344904,58434866,RL_myo,-0.0039065310933049,0.0449861471213395,0.8532718461454629,0.5195075958612229,8.125,4.625,9.75,0.0234375,0.88232421875,-0.48974609375
1969/12/31/18:00:11.169000,143,1730344904,81446856,RL_myo,-0.0057374692997101,0.0460828651200125,0.8548829256568159,0.516738458418578,19.625,4.75,10.9375,0.04736328125,0.8359375,-0.42578125
1969/12/31/18:00:11.190000,144,1730344904,102296786,RL_myo,-0.0061646022918101,0.0458988210241708,0.8568797185616146,0.5134320245416555,17.3125,5.5,5.75,-0.017578125,1.1826171875,-0.7177734375
1969/12/31/18:00:11.206000,145,1730344904,118785319,RL_myo,-0.0025025759241997,0.0445580591381915,0.856552388885263,0.5141267563301197,7.875,-16.25,-20.0625,0.10205078125,1.0517578125,-0.35205078125
1969/12/31/18:00:11.229000,146,1730344904,141404447,RL_myo,-0.0028686930069858,0.0463263402617499,0.8565795246816854,0.5139233004004411,8.3125,-6.125,6.0,0.1201171875,0.93896484375,-0.3857421875
1969/12/31/18:00:11.249000,147,1730344904,162305992,RL_myo,-0.004943992578893,0.046815337135938,0.8583625634194227,0.5108792331522839,21.5,6.4375,4.9375,0.1064453125,0.92041015625,-0.4853515625
1969/12/31/18:00:11.272000,148,1730344904,184847903,RL_myo,-0.0061037298677568,0.0467545707870174,0.8616025081325568,0.505388833050267,37.5,2.9375,0.1875,0.091796875,0.87109375,-0.47900390625
1969/12/31/18:00:11.288000,149,1730344904,201296989,RL_myo,-0.0065921337035289,0.0465111655748985,0.8642409361876485,0.500880084918133,33.0625,1.4375,-0.4375,0.0673828125,0.90673828125,-0.47021484375
1969/12/31/18:00:11.309000,150,1730344904,222312288,RL_myo,-0.0059816709479374,0.0462663936585365,0.8651449389394426,0.4993474492354719,11.0625,-2.25,-1.875,0.04248046875,0.99072265625,-0.56103515625
1969/12/31/18:00:11.325000,151,1730344904,237991101,RL_myo,-0.0049439312635575,0.0463875032136268,0.8634179216578493,0.5023278308528276,-19.4375,-7.6875,-7.5,0.1484375,0.96923828125,-0.544921875
1969/12/31/18:00:11.348000,152,1730344904,261218877,RL_myo,-0.0060426519571834,0.046326998338406,0.8592162788007144,0.509474907945554,-61.3125,1.5625,-8.75,0.259765625,0.857421875,-0.6953125
1969/12/31/18:00:11.369000,153,1730344904,282232334,RL_myo,-0.0061037892989927,0.043947282952748,0.8525772892833112,0.5207142650970739,-91.4375,4.0,-23.875,0.2841796875,0.99462890625,-0.78125
1969/12/31/18:00:11.386000,154,1730344904,298620585,RL_myo,-0.002136354637539,0.0368673771735314,0.841357494966816,0.5392159105148616,-128.75,5.0,-49.0,0.33935546875,1.04296875,-0.75439453125
1969/12/31/18:00:11.409000,155,1730344904,321301780,RL_myo,0.0007324610305223,0.024659521360919,0.822431660438175,0.5683287212661309,-204.3125,27.0625,-72.125,0.5439453125,1.13037109375,-0.72705078125
1969/12/31/18:00:11.431000,156,1730344904,344123202,RL_myo,-0.0012817903398054,0.0031129193966702,0.7967242526419086,0.6043336264006387,-257.6875,80.25,-105.0,0.8310546875,1.0771484375,-0.5244140625
1969/12/31/18:00:11.445000,157,1730344904,358029245,RL_myo,-0.0097658715005868,-0.0278937704735512,0.7680857935211586,0.6396645832884411,-263.8125,143.0625,-128.9375,0.98681640625,0.78173828125,-0.314453125
1969/12/31/18:00:11.469000,158,1730344904,381562261,RL_myo,-0.0226453106873071,-0.0630528461994293,0.740031662460679,0.6692269174545434,-236.875,180.0625,-131.5625,1.02978515625,0.4677734375,-0.2021484375
1969/12/31/18:00:11.491000,159,1730344904,403613534,RL_myo,-0.0345476067773873,-0.1008350643043178,0.716588168845455,0.6893041048357516,-175.875,189.8125,-143.5,0.99853515625,0.4091796875,-0.04931640625
1969/12/31/18:00:11.505000,160,1730344904,418126129,RL_myo,-0.0409567156592394,-0.1434400622939084,0.6979732392897205,0.7004147722649361,-113.25,191.8125,-175.875,0.71484375,0.3349609375,0.0849609375
1969/12/31/18:00:11.536000,161,1730344904,448862402,RL_myo,-0.0438243120320965,-0.1868331742761109,0.6840987315539535,0.7036914950112,-58.9375,186.8125,-180.375,0.29443359375,0.2646484375,0.12744140625
1969/12/31/18:00:11.551000,162,1730344904,463861158,RL_myo,-0.0425423075783232,-0.2255901991527729,0.6747563992515977,0.7014292664133298,-15.375,156.5,-166.9375,-0.044921875,0.23974609375,0.1396484375
1969/12/31/18:00:11.572000,163,1730344904,484628362,RL_myo,-0.0353408599220298,-0.2585559285487365,0.6670816201862939,0.697783610757591,2.75,111.9375,-163.8125,-0.2177734375,0.33154296875,0.1376953125
1969/12/31/18:00:11.588000,164,1730344904,501228781,RL_myo,-0.0246593118456206,-0.2848028442367973,0.6585379096594098,0.6961372564339205,-3.875,69.3125,-153.0,-0.33447265625,0.43212890625,0.15087890625
1969/12/31/18:00:11.611000,165,1730344904,523790861,RL_myo,-0.0158695237771616,-0.3028027209942259,0.6493076690055585,0.6974655700062528,-22.0625,39.1875,-113.5625,-0.4951171875,0.43896484375,0.17724609375
1969/12/31/18:00:11.632000,166,1730344904,544902517,RL_myo,-0.0089726792983198,-0.3135554663637342,0.6409056641657017,0.7006014488851356,-19.3125,19.125,-55.6875,-0.64453125,0.4609375,0.19189453125
1969/12/31/18:00:11.656000,167,1730344904,568537010,RL_myo,-0.0057984382473289,-0.3140922444289954,0.6323349499192368,0.7081419004790526,-46.3125,-17.4375,-7.875,-0.68017578125,0.666015625,0.16357421875
1969/12/31/18:00:11.671000,168,1730344904,583924357,RL_myo,-0.0056764297911168,-0.3039026229029135,0.619341216026484,0.7238973905660885,-97.75,-64.4375,34.5625,-0.77197265625,0.884765625,0.24462890625
1969/12/31/18:00:11.692000,169,1730344904,604907768,RL_myo,-0.0101929180836871,-0.281617509210374,0.6020535567514368,0.7470737565528778,-160.1875,-115.8125,72.8125,-0.83203125,1.01611328125,0.291015625
1969/12/31/18:00:11.708000,170,1730344904,621160399,RL_myo,-0.0146487111746251,-0.2480515092236518,0.5731918610037682,0.7808373419040792,-247.875,-182.0,93.375,-0.84619140625,0.95751953125,0.35986328125
1969/12/31/18:00:11.731000,171,1730344904,643885827,RL_myo,-0.0115967435823046,-0.209595881377021,0.5358305889950109,0.817814564522628,-285.5625,-233.75,65.25,-0.84375,0.7705078125,0.482421875
1969/12/31/18:00:11.754000,172,1730344904,666676186,RL_myo,-0.0021973658136029,-0.1671829156516221,0.5053941371286715,0.8465351796905249,-219.0625,-264.375,59.0625,-0.92529296875,0.58984375,0.58203125
1969/12/31/18:00:11.769000,173,1730344904,681349064,RL_myo,0.0099492141248688,-0.1217100181901132,0.4817128703893548,0.8677790013083448,-163.375,-280.5625,58.75,-0.7763671875,0.6796875,0.591796875
1969/12/31/18:00:11.791000,174,1730344904,703898577,RL_myo,0.0201426823918145,-0.0751993475961075,0.4564453906848151,0.8863390636713293,-170.6875,-280.75,70.3125,-0.81201171875,0.9794921875,0.4736328125
1969/12/31/18:00:11.812000,175,1730344904,724953322,RL_myo,0.0292978716569602,-0.0285654248655362,0.429519005937561,0.902130298103901,-174.0625,-279.75,76.0625,-0.8857421875,1.01708984375,0.4912109375
1969/12/31/18:00:11.829000,176,1730344904,741458522,RL_myo,0.0375999356891985,0.0188610067012375,0.4024291818163735,0.9144841501551506,-165.0625,-280.875,80.6875,-0.71142578125,0.927734375,0.58251953125
1969/12/31/18:00:11.851000,177,1730344904,763552922,RL_myo,0.0441306935651012,0.0638460656557343,0.3789257892837463,0.9221666920906636,-135.5625,-262.0,81.25,-0.49365234375,0.8720703125,0.61865234375
1969/12/31/18:00:11.872000,178,1730344904,784939362,RL_myo,0.0495014691491911,0.1042521693055715,0.3656760809775638,0.9235594694160436,-66.75,-233.1875,69.375,-0.2314453125,0.81005859375,0.68017578125
1969/12/31/18:00:11.890000,179,1730344904,802905858,RL_myo,0.0516975951774954,0.1394675383477888,0.361516949511577,0.9204247169735912,-8.375,-198.875,69.0,-0.20556640625,0.7548828125,0.66015625
1969/12/31/18:00:11.918000,180,1730344904,831368672,RL_myo,0.0460232564951103,0.1721294208437814,0.3622042493925529,0.9149105989459008,26.375,-171.875,103.25,-0.32861328125,0.84912109375,0.61279296875
1969/12/31/18:00:11.932000,181,1730344904,844683998,RL_myo,0.033143110381799,0.2042299214318591,0.36707673266324,0.906888276340276,60.9375,-154.3125,134.6875,-0.18310546875,0.8818359375,0.63427734375
1969/12/31/18:00:11.948000,182,1730344904,861339056,RL_myo,0.0177616199992728,0.2323048993719331,0.3731771294692588,0.8980299486230299,74.0,-125.125,132.625,0.28271484375,0.81494140625,0.7646484375
1969/12/31/18:00:11.971000,183,1730344904,883842020,RL_myo,0.0036012319498184,0.2537342578880537,0.3769696359674331,0.8907860860279662,57.5625,-89.5,111.9375,0.56591796875,0.7373046875,0.78564453125
1969/12/31/18:00:11.992000,184,1730344904,904745466,RL_myo,-0.0137336173316321,0.2720476997648194,0.3770335744777406,0.8852384540473809,39.125,-65.0625,127.625,0.53125,0.69775390625,0.7080078125
1969/12/31/18:00:12.008000,185,1730344904,921241908,RL_myo,-0.0357086759388044,0.2882941477931169,0.3743001724046988,0.8806308850754387,30.875,-43.5625,151.625,0.513671875,0.642578125,0.7021484375
1969/12/31/18:00:12.031000,186,1730344904,943929688,RL_myo,-0.052250456385755,0.3023934123072783,0.3673402412727495,0.8780029960896026,-3.625,-39.625,125.375,0.6513671875,0.67529296875,0.73486328125
1969/12/31/18:00:12.052000,187,1730344904,964861507,RL_myo,-0.0596969546276684,0.3147213681597733,0.3576323692878417,0.877203409973643,-32.0625,-45.5625,75.3125,0.68310546875,0.55224609375,0.650390625
1969/12/31/18:00:12.068000,188,1730344904,981224067,RL_myo,-0.0690331776031032,0.324413208629968,0.352124139338906,0.8752137344393436,-6.875,-31.5,73.4375,0.67236328125,0.53515625,0.59375
1969/12/31/18:00:12.091000,189,1730344905,4234219,RL_myo,-0.0802040562844337,0.3326576154871873,0.3473067581875405,0.8730889049410508,1.5,-22.25,79.3125,0.70166015625,0.54296875,0.619140625
1969/12/31/18:00:12.112000,190,1730344905,24920683,RL_myo,-0.0936297767660525,0.3400945998307983,0.3425970906048584,0.87074471665222,5.8125,-2.875,79.25,1.00341796875,0.53955078125,0.6083984375
1969/12/31/18:00:12.134000,191,1730344905,47278027,RL_myo,-0.1008977337557441,0.3427959302917476,0.3397439722229108,0.8699911671026139,-0.3125,7.5625,41.0,0.8623046875,0.53759765625,0.548828125
1969/12/31/18:00:12.151000,192,1730344905,63719119,RL_myo,-0.1069962992202178,0.3439384746753724,0.3405814886758789,0.8684827961234913,13.1875,11.625,29.75,0.72509765625,0.51318359375,0.38818359375
1969/12/31/18:00:12.172000,193,1730344905,84798380,RL_myo,-0.1147541526946973,0.34444557641286,0.34084424928042,0.8671873656029598,13.75,17.9375,38.1875,0.68408203125,0.48193359375,0.3642578125
1969/12/31/18:00:12.188000,194,1730344905,101268278,RL_myo,-0.122318231606641,0.3457138043014047,0.3377789888778202,0.8668480665057468,-3.5,16.0625,44.5625,0.67919921875,0.46337890625,0.39990234375
1969/12/31/18:00:12.211000,195,1730344905,123737465,RL_myo,-0.1283643616040055,0.3481036396707767,0.3310738456206019,0.8676039162336349,-26.875,10.3125,45.875,0.65966796875,0.435546875,0.42333984375
1969/12/31/18:00:12.232000,196,1730344905,144833118,RL_myo,-0.1336111699681027,0.3514541419261468,0.3218509361543196,0.8689303863252216,-40.875,6.9375,46.6875,0.6875,0.39990234375,0.45361328125
1969/12/31/18:00:12.248000,197,1730344905,161153945,RL_myo,-0.1366043320926945,0.3539626996450115,0.3130668540229805,0.8706542417203732,-39.5,4.625,30.75,0.77587890625,0.38916015625,0.5791015625
1969/12/31/18:00:12.271000,198,1730344905,184181953,RL_myo,-0.1367220988825326,0.3545008706739953,0.3064650261112484,0.8727630767505956,-29.1875,2.8125,6.5625,0.7119140625,0.30712890625,0.6513671875
1969/12/31/18:00:12.276000,199,1730344905,189063439,RL_myo,-0.1367254722072881,0.3546316935376535,0.3027492598875665,0.8740053734536423,-15.9375,4.25,1.125,0.70654296875,0.32080078125,0.5771484375
1969/12/31/18:00:12.299000,200,1730344905,211592049,RL_myo,-0.137396830765628,0.3542042687396444,0.2997582567258993,0.8751036706738379,-11.5,7.75,3.4375,0.67236328125,0.32080078125,0.552734375
1969/12/31/18:00:12.315000,201,1730344905,228056285,RL_myo,-0.1397137939621264,0.3539538187795419,0.2963348491420376,0.8760036570312097,-10.125,8.375,13.375,0.6650390625,0.318359375,0.56640625
1969/12/31/18:00:12.336000,202,1730344905,249156822,RL_myo,-0.1428325742308739,0.3543956948651512,0.2932950936663885,0.8763449864242123,-6.5,5.3125,18.6875,0.66015625,0.31591796875,0.55615234375
1969/12/31/18:00:12.359000,203,1730344905,271526121,RL_myo,-0.1467346650593144,0.3552394969406032,0.291699236405351,0.8758911995013154,0.75,4.8125,22.4375,0.68017578125,0.3466796875,0.51806640625
1969/12/31/18:00:12.375000,204,1730344905,288229458,RL_myo,-0.1506431236501048,0.3556715889421236,0.2898720397951166,0.8756589351233405,-0.6875,7.75,21.9375,0.701171875,0.35107421875,0.5234375
1969/12/31/18:00:12.396000,205,1730344905,309198495,RL_myo,-0.1547884260752831,0.3559035143710474,0.2872985495017184,0.875689885213757,-2.125,10.125,21.5,0.72998046875,0.30322265625,0.548828125
1969/12/31/18:00:12.419000,206,1730344905,331847761,RL_myo,-0.1583268627241172,0.3563269948278321,0.2844878593512377,0.8758026805043788,-3.9375,9.375,18.0,0.73095703125,0.2724609375,0.54443359375
1969/12/31/18:00:12.436000,207,1730344905,348231728,RL_myo,-0.1612597158322296,0.3567611805599479,0.2822350211991786,0.8758197057065341,-3.125,8.0,14.4375,0.73046875,0.27490234375,0.52587890625
1969/12/31/18:00:12.456000,208,1730344905,369158090,RL_myo,-0.1636420530741449,0.3566432361477913,0.2804071584567779,0.8760129599851277,-1.0,7.8125,10.25,0.7080078125,0.26953125,0.556640625
1969/12/31/18:00:12.479000,209,1730344905,391762211,RL_myo,-0.1657793564973018,0.356523277356679,0.2798594806848781,0.8758350465315848,5.8125,4.3125,7.0625,0.6962890625,0.26904296875,0.5673828125
1969/12/31/18:00:12.497000,210,1730344905,409657028,RL_myo,-0.1679165132628215,0.3567081437687855,0.2813868143008387,0.8748627352221087,16.375,0.375,4.125,0.703125,0.2724609375,0.55029296875
1969/12/31/18:00:12.516000,211,1730344905,429239264,RL_myo,-0.16968538297178,0.3569496833161761,0.2840093838013282,0.8735745327669481,20.8125,-0.5625,0.25,0.71630859375,0.28173828125,0.52490234375
1969/12/31/18:00:12.539000,212,1730344905,451710544,RL_myo,-0.1705989158094142,0.3568843866682094,0.2867526677898491,0.8725264763848217,19.0,-0.8125,-3.5,0.7021484375,0.30078125,0.51708984375
1969/12/31/18:00:12.539000,1,1730344910,680730350,RL_myo,-0.2394485970076187,0.3311873788843587,0.4610133197039369,0.7876839521752027,202.0625,136.375,-41.8125,1.263671875,1.3095703125,0.88720703125
1969/12/31/18:00:12.560000,2,1730344910,701729311,RL_myo,-0.2450044557856925,0.2966421661979237,0.472979453882245,0.7926327510794727,98.8125,160.125,-89.875,0.98095703125,1.34228515625,0.810546875
1969/12/31/18:00:12.591000,3,1730344910,732561502,RL_myo,-0.236708736312563,0.2557528636280658,0.4764694161051746,0.807178011603232,15.75,183.5625,-169.1875,0.79736328125,1.32177734375,0.4931640625
1969/12/31/18:00:12.599000,4,1730344910,740827770,RL_myo,-0.2206463661933097,0.2101481158516087,0.4717498656453917,0.8274086141401125,-40.8125,204.25,-218.125,0.64794921875,0.96923828125,0.4638671875
1969/12/31/18:00:12.620000,5,1730344910,761942882,RL_myo,-0.2063652474353634,0.1596721346616121,0.4690063771941238,0.8437720143586112,-11.0625,223.6875,-221.1875,0.380859375,0.7021484375,0.4716796875
1969/12/31/18:00:12.642000,6,1730344910,784269505,RL_myo,-0.1909198186727397,0.1121226684468743,0.4715621864020419,0.8535849309904939,30.0,191.5,-213.8125,-0.0537109375,0.32177734375,0.3740234375
1969/12/31/18:00:12.659000,7,1730344910,800763298,RL_myo,-0.1732846175423536,0.061281351184404,0.4859171681066141,0.854459796046287,110.0,183.625,-228.75,-0.2197265625,0.49951171875,0.1630859375
1969/12/31/18:00:12.680000,8,1730344910,821966418,RL_myo,-0.1549718754655299,0.0063478042727117,0.5085567807714829,0.846943577770655,178.8125,189.0625,-236.5,-0.37744140625,0.53662109375,0.203125
1969/12/31/18:00:12.702000,9,1730344910,844293467,RL_myo,-0.1383701928549307,-0.048585211077426,0.5297985328543445,0.8353482397055944,186.1875,195.0625,-223.4375,-0.47802734375,0.689453125,0.3798828125
1969/12/31/18:00:12.720000,10,1730344910,862220231,RL_myo,-0.124946720160217,-0.1024233495011451,0.5434907651717502,0.8237205610953244,150.3125,205.6875,-206.875,-0.5634765625,0.84130859375,0.5185546875
1969/12/31/18:00:12.740000,11,1730344910,881778860,RL_myo,-0.1163363163324731,-0.1574751816042921,0.5514072831834012,0.8109361483700097,124.0625,233.1875,-192.4375,-0.50341796875,0.896484375,0.4423828125
1969/12/31/18:00:12.762000,12,1730344910,904271910,RL_myo,-0.1107221248969805,-0.2117392785378309,0.5536106244849025,0.7977608447649036,97.625,243.25,-179.375,-0.642578125,0.63916015625,0.47900390625
1969/12/31/18:00:12.785000,13,1730344910,926826964,RL_myo,-0.1084607415756264,-0.2601959152149103,0.557013352627556,0.7811981043480265,107.9375,232.0,-141.875,-0.6630859375,0.5166015625,0.498046875
1969/12/31/18:00:12.800000,14,1730344910,941727456,RL_myo,-0.1082766880625224,-0.299195222594411,0.5629899496554157,0.7627586080706559,116.25,197.8125,-97.0625,-0.66845703125,0.43896484375,0.44775390625
1969/12/31/18:00:12.822000,15,1730344910,964221474,RL_myo,-0.1085836646217295,-0.3278872660752844,0.5694691348626961,0.745925219416614,103.375,150.9375,-60.375,-0.724609375,0.33544921875,0.24365234375
1969/12/31/18:00:12.840000,16,1730344910,982113134,RL_myo,-0.1079736146865087,-0.3426590575749352,0.5740485280534852,0.7357953222418675,64.9375,73.375,0.1875,-0.73974609375,0.42431640625,0.07275390625
1969/12/31/18:00:12.860000,17,1730344911,1748391,RL_myo,-0.1105402055061459,-0.3402270046887121,0.5948784333864708,0.7198236573903807,130.9375,14.6875,76.9375,-0.58251953125,0.28271484375,-0.15185546875
1969/12/31/18:00:12.890000,18,1730344911,31926541,RL_myo,-0.1171903901172764,-0.3280110190053351,0.6230622407901862,0.7003346542737653,161.25,-7.9375,140.4375,-0.3388671875,0.26025390625,-0.0517578125
1969/12/31/18:00:12.900000,19,1730344911,42164906,RL_myo,-0.128849093064348,-0.3064057068607422,0.648212869892646,0.6850792139053727,122.1875,-32.4375,180.75,-0.10986328125,0.693359375,0.171875
1969/12/31/18:00:12.920000,20,1730344911,61810381,RL_myo,-0.1395335552085216,-0.2800437232269017,0.670933000372734,0.6722758429862893,99.3125,-58.125,185.8125,0.0087890625,0.89453125,-0.01416015625
1969/12/31/18:00:12.942000,21,1730344911,84233637,RL_myo,-0.1519818794344538,-0.2513499516108758,0.6911818484802228,0.6602971773983619,80.1875,-60.0625,197.75,0.087890625,0.57861328125,-0.0927734375
1969/12/31/18:00:12.961000,22,1730344911,102311144,RL_myo,-0.1716898814188925,-0.2136815765544056,0.702201239148368,0.6570967875420538,-5.5,-69.9375,236.0625,0.36669921875,0.5322265625,0.02783203125
1969/12/31/18:00:12.980000,23,1730344911,121887748,RL_myo,-0.1873258599374938,-0.1749351301990411,0.7091403847356804,0.6568307522930501,-31.25,-90.5,214.125,0.57958984375,0.73828125,-0.1220703125
1969/12/31/18:00:13.002000,24,1730344911,144244501,RL_myo,-0.1959937926940037,-0.1435009052082226,0.723303158961054,0.6463949749702583,53.375,-88.625,175.25,0.65576171875,0.388671875,-0.04541015625
1969/12/31/18:00:13.020000,25,1730344911,162079561,RL_myo,-0.2042862524301819,-0.1196908697387471,0.7422542921432453,0.6268969521094707,117.875,-60.5625,153.875,0.8349609375,0.35498046875,-0.03662109375
1969/12/31/18:00:13.040000,26,1730344911,181791535,RL_myo,-0.2075919201237096,-0.1085264433931066,0.7646902603086841,0.6003135943595074,175.6875,-35.4375,94.8125,0.78759765625,0.775390625,-0.3232421875
1969/12/31/18:00:13.063000,27,1730344911,204271122,RL_myo,-0.2057550436038962,-0.1093779407114156,0.7870084640251077,0.5712433856686042,204.125,-14.4375,33.5,0.54541015625,1.0927734375,-0.4384765625
1969/12/31/18:00:13.094000,28,1730344911,235665104,RL_myo,-0.2040508013890584,-0.1142635657195086,0.8041176361051321,0.5465363073998294,173.0,3.25,9.6875,0.42919921875,1.2392578125,-0.515625
1969/12/31/18:00:13.100000,29,1730344911,241818513,RL_myo,-0.2056320016863937,-0.1158472956962823,0.8131894207384456,0.5319942198571112,94.375,9.8125,16.0,0.36279296875,1.26513671875,-0.5126953125
1969/12/31/18:00:13.122000,30,1730344911,264337919,RL_myo,-0.2077673975278988,-0.1138326076349974,0.813491149897719,0.5311374539623313,-1.125,4.875,17.5,0.27197265625,1.1767578125,-0.484375
1969/12/31/18:00:13.140000,31,1730344911,282047859,RL_myo,-0.2096629889498431,-0.1086463232403845,0.8111851886880396,0.5349915860685227,-42.8125,-3.4375,25.8125,0.20361328125,0.95947265625,-0.517578125
1969/12/31/18:00:13.160000,32,1730344911,301723981,RL_myo,-0.2131385443185414,-0.1015032643762126,0.8110495351960995,0.5352267740920075,-24.3125,-3.875,41.0625,0.23681640625,0.75634765625,-0.4677734375
1969/12/31/18:00:13.182000,33,1730344911,324262939,RL_myo,-0.2190006201291663,-0.0942410695316145,0.8144772226877358,0.528946313834826,16.9375,3.4375,51.0,0.353515625,0.66552734375,-0.4189453125
1969/12/31/18:00:13.200000,34,1730344911,342265447,RL_myo,-0.2250470761759393,-0.0916180258584445,0.8218155230900047,0.5153437657047616,71.375,15.875,39.0,0.40478515625,0.6708984375,-0.404296875
1969/12/31/18:00:13.220000,35,1730344911,361795240,RL_myo,-0.2279711736247052,-0.0948506569779898,0.8296685844928028,0.5006820715511264,91.1875,22.75,18.0625,0.28662109375,0.9619140625,-0.48876953125
1969/12/31/18:00:13.243000,36,1730344911,384367465,RL_myo,-0.2273572499373139,-0.102051361582601,0.8358812182259099,0.4890774882544152,84.5625,19.4375,-8.3125,0.22021484375,1.13134765625,-0.521484375
1969/12/31/18:00:13.260000,37,1730344911,402049234,RL_myo,-0.2290753519301065,-0.1066943019381364,0.8399429570770574,0.4802464345819553,54.25,24.125,-0.25,0.2705078125,0.99365234375,-0.5771484375
1969/12/31/18:00:13.280000,38,1730344911,421755805,RL_myo,-0.2323131985318103,-0.1084046874914595,0.8420895656712704,0.4745146624766929,29.625,25.5,15.4375,0.251953125,1.02880859375,-0.6015625
1969/12/31/18:00:13.302000,39,1730344911,444318573,RL_myo,-0.2335836548734202,-0.109742203151923,0.8430862358940564,0.4718060235619384,15.625,15.1875,10.25,0.173828125,0.95458984375,-0.521484375
1969/12/31/18:00:13.321000,40,1730344911,462280696,RL_myo,-0.2337193843053394,-0.1088330274788248,0.8441731744431559,0.4700024181643022,2.375,3.9375,14.375,0.17724609375,0.81640625,-0.5654296875
1969/12/31/18:00:13.340000,41,1730344911,481881888,RL_myo,-0.2331610659158327,-0.1087678061418884,0.8456666409067705,0.4676039073249201,11.375,1.25,8.75,0.19091796875,0.83642578125,-0.53173828125
1969/12/31/18:00:13.362000,42,1730344911,504251688,RL_myo,-0.231822297164648,-0.1090138553807428,0.8478787598510076,0.4641939362657053,20.0625,-1.25,8.75,0.12939453125,0.7470703125,-0.46533203125
1969/12/31/18:00:13.380000,43,1730344911,522104778,RL_myo,-0.2305981266056645,-0.1076083899432997,0.8501245916791147,0.4610131419408639,15.4375,-3.6875,18.75,0.11083984375,0.76806640625,-0.517578125
1969/12/31/18:00:13.400000,44,1730344911,541813145,RL_myo,-0.229013077264156,-0.106693725761659,0.8530004676883209,0.4566833273162087,24.5,-6.25,14.125,0.158203125,0.76171875,-0.5068359375
1969/12/31/18:00:13.425000,45,1730344911,567250477,RL_myo,-0.2269964456777274,-0.1062043063939891,0.8550667403870084,0.4539318543977572,15.3125,-7.6875,7.25,0.17919921875,0.76416015625,-0.51953125
1969/12/31/18:00:13.441000,46,1730344911,582659229,RL_myo,-0.2254624788152799,-0.1046136136138034,0.8551583082514582,0.4548922183568709,-6.875,-8.9375,7.375,0.19775390625,0.8037109375,-0.49365234375
1969/12/31/18:00:13.461000,47,1730344911,603101067,RL_myo,-0.2222336723984838,-0.1028463987891912,0.8548763569385235,0.457407069748486,-19.0,-17.125,1.5,0.21435546875,0.85498046875,-0.5908203125
1969/12/31/18:00:13.482000,48,1730344911,624188947,RL_myo,-0.2173497500269543,-0.1010148374879554,0.8543841058346832,0.4610671192652662,-27.1875,-23.625,-2.3125,0.185546875,0.87939453125,-0.65234375
1969/12/31/18:00:13.500000,49,1730344911,642235673,RL_myo,-0.2128998031080784,-0.0990032914682635,0.8551394041124365,0.4621781276187987,-10.9375,-25.5625,-1.8125,0.26416015625,0.8798828125,-0.64111328125
1969/12/31/18:00:13.528000,50,1730344911,669369849,RL_myo,-0.2092989034818162,-0.0964398563724904,0.8560563200153027,0.4626671590528338,-8.6875,-23.8125,2.3125,0.30615234375,0.91015625,-0.6552734375
1969/12/31/18:00:13.543000,51,1730344911,684347606,RL_myo,-0.2072209994350476,-0.0939361172696725,0.8572052182815342,0.4619899100806702,-2.875,-17.125,5.3125,0.3251953125,0.8505859375,-0.62841796875
1969/12/31/18:00:13.560000,52,1730344911,702156940,RL_myo,-0.2063627400053869,-0.092103334714028,0.859448015976295,0.4585635213429376,12.125,-7.5,11.125,0.25341796875,0.73681640625,-0.58935546875
1969/12/31/18:00:13.581000,53,1730344911,723164921,RL_myo,-0.2053920890439621,-0.0916787274127878,0.8612429053225279,0.4557079752755487,12.6875,-2.25,7.6875,0.2021484375,0.82470703125,-0.60791015625
1969/12/31/18:00:13.602000,54,1730344911,744275219,RL_myo,-0.2030697698822319,-0.0926540158344538,0.8648928882570563,0.4495978133310851,34.3125,-2.375,6.125,0.1123046875,0.755859375,-0.61083984375
1969/12/31/18:00:13.620000,55,1730344911,762118669,RL_myo,-0.2011218247100667,-0.092717466383791,0.8674790205704002,0.4454589003745272,26.4375,-5.4375,8.0625,0.15380859375,0.85009765625,-0.57568359375
1969/12/31/18:00:13.648000,56,1730344911,789344375,RL_myo,-0.1989787244864241,-0.0938129753176791,0.8684261631879885,0.4443451270739778,11.375,-3.8125,-1.8125,0.18408203125,0.966796875,-0.61181640625
1969/12/31/18:00:13.662000,57,1730344911,804233760,RL_myo,-0.195991013583045,-0.0946689698123023,0.8681956328885806,0.4459390673427987,-5.5625,-8.9375,-7.0,0.17724609375,0.9375,-0.6025390625
1969/12/31/18:00:13.680000,58,1730344911,822064980,RL_myo,-0.1948913126933764,-0.0934477293246349,0.8661157930219269,0.4506976050510153,-26.75,-8.0625,-0.375,0.2421875,0.93701171875,-0.54052734375
1969/12/31/18:00:13.701000,59,1730344911,843269013,RL_myo,-0.1950092337439972,-0.0924081314204732,0.8632286675559793,0.456364331988691,-35.25,-1.4375,-0.6875,0.2431640625,0.90673828125,-0.52685546875
1969/12/31/18:00:13.723000,60,1730344911,864501929,RL_myo,-0.1947145276010127,-0.0914364772245508,0.8615049663199668,0.4599291427817025,-24.1875,-1.4375,2.4375,0.19677734375,0.83447265625,-0.52490234375
1969/12/31/18:00:13.752000,61,1730344911,894235280,RL_myo,-0.1944008761318114,-0.0908831725463947,0.8607960929629316,0.4614960830243725,-12.875,-0.25,3.0625,0.20654296875,0.87646484375,-0.57568359375
1969/12/31/18:00:13.763000,62,1730344911,904607632,RL_myo,-0.1943388721293433,-0.0908827200378744,0.8609749152815696,0.4611886048396101,1.75,1.25,3.0,0.224609375,0.89306640625,-0.54345703125
1969/12/31/18:00:13.784000,63,1730344911,925712580,RL_myo,-0.1942789973398738,-0.0907611904003746,0.8611631710550675,0.460886179363301,-0.4375,2.5,5.1875,0.20068359375,0.9013671875,-0.580078125
1969/12/31/18:00:13.800000,64,1730344911,942259308,RL_myo,-0.1947033071497779,-0.0902104977954143,0.8614553219786726,0.4602688524189577,2.0,3.75,9.4375,0.1875,0.88720703125,-0.55224609375
1969/12/31/18:00:13.823000,65,1730344911,964619886,RL_myo,-0.1957462077430472,-0.0894804928441868,0.8609292984769821,0.460952716206889,-7.375,5.0625,6.8125,0.24755859375,0.8994140625,-0.5634765625
1969/12/31/18:00:13.846000,66,1730344911,987741551,RL_myo,-0.1967250803671135,-0.0898477562210335,0.8602068127873815,0.4618125839458829,-10.4375,8.5625,2.0,0.21923828125,0.84521484375,-0.57373046875
1969/12/31/18:00:13.859000,67,1730344912,1153249,RL_myo,-0.1973991096722608,-0.0905203709474219,0.8599130046576406,0.4619407736548143,-10.6875,9.4375,-0.1875,0.22021484375,0.80810546875,-0.64599609375
1969/12/31/18:00:13.882000,68,1730344912,24076863,RL_myo,-0.1969030960065545,-0.0920427367569387,0.8599403966634678,0.4618006275218821,-11.0,7.5,-6.0,0.22021484375,0.87548828125,-0.755859375
1969/12/31/18:00:13.903000,69,1730344912,44925476,RL_myo,-0.1942256780048422,-0.0945492065460404,0.8596103781716508,0.4630408527167608,-12.6875,-0.5625,-15.375,0.2119140625,1.04443359375,-0.78955078125
1969/12/31/18:00:13.920000,70,1730344912,61453625,RL_myo,-0.1886685292957127,-0.0982712171355863,0.8590491366249954,0.4655980399442564,-15.3125,-11.0,-27.8125,0.1708984375,1.1162109375,-0.8046875
1969/12/31/18:00:13.942000,71,1730344912,84507460,RL_myo,-0.1822573898079399,-0.1011998500675031,0.8576351588048776,0.4701093155729248,-26.25,-21.0625,-34.6875,0.24365234375,1.1201171875,-0.76953125
1969/12/31/18:00:13.963000,72,1730344912,104916298,RL_myo,-0.1750554053278947,-0.1041298889433013,0.8550736308362891,0.4768245559349768,-34.0,-28.75,-42.3125,0.27685546875,1.17919921875,-0.68701171875
1969/12/31/18:00:13.980000,73,1730344912,121783207,RL_myo,-0.1640691573825443,-0.1092573629891199,0.8531840334424124,0.482929751938501,-27.0625,-36.5,-54.875,0.09375,1.080078125,-0.66552734375
1969/12/31/18:00:14.002000,74,1730344912,143886700,RL_myo,-0.1500893911127102,-0.1150542912759083,0.8522562700718879,0.4877447435468349,-17.8125,-48.375,-63.0625,0.021484375,1.02587890625,-0.66064453125
1969/12/31/18:00:14.023000,75,1730344912,164918620,RL_myo,-0.1359901981201212,-0.1196323107340384,0.8523802139800241,0.4905535109027893,-2.25,-55.8125,-60.5,0.06982421875,0.9775390625,-0.57763671875
1969/12/31/18:00:14.040000,76,1730344912,181385253,RL_myo,-0.1228083255690058,-0.1226252117634854,0.8534934475305214,0.4913553781463703,9.6875,-58.1875,-53.0,0.1171875,0.91552734375,-0.5244140625
1969/12/31/18:00:14.062000,77,1730344912,203788466,RL_myo,-0.1087058853385725,-0.125551940562293,0.8560359583792704,0.4895121843994117,26.4375,-58.8125,-47.125,0.00537109375,0.88818359375,-0.5400390625
1969/12/31/18:00:14.083000,78,1730344912,224819760,RL_myo,-0.0928376747385973,-0.1292158825914599,0.8589163438011453,0.4867721604472807,31.8125,-62.3125,-50.5625,-0.10498046875,0.83984375,-0.55078125
1969/12/31/18:00:14.099000,79,1730344912,241146763,RL_myo,-0.0782479733736081,-0.1302505266609046,0.8623146394870015,0.4830378013094655,38.3125,-65.1875,-36.125,-0.0771484375,0.755859375,-0.47509765625
1969/12/31/18:00:14.122000,80,1730344912,264099719,RL_myo,-0.0663474676544246,-0.1279950686948744,0.8664234621477074,0.4780435755928738,46.375,-61.5,-13.9375,-0.048828125,0.7021484375,-0.40478515625
1969/12/31/18:00:14.143000,81,1730344912,284920027,RL_myo,-0.0554205697430832,-0.1253676764893095,0.8709818614909675,0.4718072732533411,50.6875,-55.8125,-6.9375,-0.08935546875,0.6923828125,-0.4443359375
1969/12/31/18:00:14.167000,82,1730344912,308863366,RL_myo,-0.0448018431654582,-0.1219537910689176,0.8758943452647485,0.4646817874913261,55.8125,-55.8125,-1.5,-0.10791015625,0.6689453125,-0.4521484375
1969/12/31/18:00:14.182000,83,1730344912,323935922,RL_myo,-0.0349742150680579,-0.1173131611881455,0.8809473753530199,0.4571062768668167,55.0,-56.875,3.6875,-0.056640625,0.62353515625,-0.47998046875
1969/12/31/18:00:14.203000,84,1730344912,344997352,RL_myo,-0.0256968523774272,-0.111943057625182,0.8855342857285392,0.450152699010751,49.5625,-55.1875,10.125,-0.09521484375,0.65087890625,-0.525390625
1969/12/31/18:00:14.219000,85,1730344912,361291172,RL_myo,-0.0174564301112842,-0.105471018294752,0.8892403157038444,0.4447727490242236,41.875,-55.9375,14.0625,-0.0439453125,0.69482421875,-0.51953125
1969/12/31/18:00:14.243000,86,1730344912,384465149,RL_myo,-0.0101322089823514,-0.0997961547358109,0.8924889140960416,0.4397744922761578,35.25,-51.25,10.3125,-0.0234375,0.732421875,-0.609375
1969/12/31/18:00:14.265000,87,1730344912,406337775,RL_myo,-0.001648012933913,-0.0949133374901786,0.8948710231147965,0.4361130523262547,28.5,-52.0625,7.375,-0.11572265625,0.74169921875,-0.60302734375
1969/12/31/18:00:14.279000,88,1730344912,421255570,RL_myo,0.0061037794637822,-0.0891151801712202,0.8962179386671413,0.4345280600266553,15.4375,-53.8125,10.6875,-0.072265625,0.71826171875,-0.58056640625
1969/12/31/18:00:14.310000,89,1730344912,451492811,RL_myo,0.0118416336614561,-0.0815485699572444,0.8975836236686221,0.4330741795259349,12.9375,-50.25,22.0625,-0.0185546875,0.6474609375,-0.5380859375
1969/12/31/18:00:14.323000,90,1730344912,465099971,RL_myo,0.0152591935195057,-0.0737934598603297,0.8995599763619019,0.4302482204759836,22.5625,-39.8125,26.5,0.02685546875,0.6552734375,-0.515625
1969/12/31/18:00:14.340000,91,1730344912,481413816,RL_myo,0.0192263685590266,-0.066773483185953,0.9017472034636838,0.4266422737384019,28.375,-37.0625,25.3125,-0.05908203125,0.724609375,-0.5615234375
1969/12/31/18:00:14.362000,92,1730344912,503793033,RL_myo,0.0230725179055204,-0.0602449078644145,0.9039177715948477,0.4228130463797359,26.125,-36.5,22.25,-0.03759765625,0.6884765625,-0.6005859375
1969/12/31/18:00:14.383000,93,1730344912,524801160,RL_myo,0.0253911938207386,-0.053223848585779,0.9053547546707124,0.4205416476559839,16.0625,-33.3125,24.8125,0.03076171875,0.71142578125,-0.6201171875
1969/12/31/18:00:14.400000,94,1730344912,541910343,RL_myo,0.0264903971486242,-0.045900411649229,0.9058617144763408,0.4202451252725292,5.1875,-27.625,30.1875,0.015625,0.7353515625,-0.60888671875
1969/12/31/18:00:14.422000,95,1730344912,563697636,RL_myo,0.0283210446552552,-0.0388193629326343,0.90560202489229,0.4213976127152639,-5.625,-27.375,31.625,-0.07177734375,0.7294921875,-0.6298828125
1969/12/31/18:00:14.443000,96,1730344912,584928463,RL_myo,0.0306405585859808,-0.0322275197876451,0.9048730697951504,0.4233524190286113,-9.25,-31.9375,24.75,-0.00537109375,0.77197265625,-0.62060546875
1969/12/31/18:00:14.460000,97,1730344912,601474866,RL_myo,0.0323503529007996,-0.0260633975257386,0.9034293835561056,0.4267194662820576,-17.25,-30.25,21.1875,0.0380859375,0.830078125,-0.64599609375
1969/12/31/18:00:14.482000,98,1730344912,624224032,RL_myo,0.0339372171297991,-0.0197153257786423,0.9000076737030364,0.4341033960919629,-38.25,-28.4375,25.4375,-0.0087890625,0.91064453125,-0.59814453125
1969/12/31/18:00:14.503000,99,1730344912,644968939,RL_myo,0.0349137533559476,-0.0132452525843367,0.8960382854288661,0.442403643922917,-50.625,-24.75,29.375,-0.0322265625,0.82080078125,-0.61572265625
1969/12/31/18:00:14.527000,100,1730344912,668884295,RL_myo,0.0355849928439088,-0.0072634891053604,0.8932870845121889,0.4480168910365197,-35.625,-21.375,27.6875,-0.0283203125,0.76611328125,-0.59375
1969/12/31/18:00:14.542000,101,1730344912,683841832,RL_myo,0.0369273811436988,-0.0017700728151525,0.8912621809260992,0.4519789378001482,-18.4375,-22.5,23.375,-0.03857421875,0.88623046875,-0.53759765625
1969/12/31/18:00:14.563000,102,1730344912,704849808,RL_myo,0.0381483629801717,0.0031739437999502,0.8896198246976057,0.4550947110082571,-14.4375,-21.875,18.6875,-0.001953125,0.919921875,-0.58056640625
1969/12/31/18:00:14.586000,103,1730344912,727459631,RL_myo,0.0375993700980319,0.0079959699396788,0.8879799288736503,0.4582728420389996,-19.1875,-15.375,19.4375,0.0595703125,0.875,-0.623046875
1969/12/31/18:00:14.616000,104,1730344912,758166511,RL_myo,0.036134581813603,0.0125128197158591,0.8861517884626502,0.4618146047326361,-19.0,-8.6875,21.625,0.05078125,0.8818359375,-0.5625
1969/12/31/18:00:14.624000,105,1730344912,765497588,RL_myo,0.0350357063918813,0.0163581346916798,0.8843769162229429,0.465169195840641,-17.1875,-6.0,21.0625,-0.01123046875,0.861328125,-0.52734375
1969/12/31/18:00:14.639000,106,1730344912,780679048,RL_myo,0.0352189025036242,0.0204477163582567,0.8821205874911219,0.4692598309321717,-21.0625,-11.875,20.75,-0.04443359375,0.953125,-0.5556640625
1969/12/31/18:00:14.662000,107,1730344912,803909815,RL_myo,0.0350350507603421,0.0247808895621932,0.879538469436463,0.473888735371596,-26.5625,-14.4375,18.0625,0.05322265625,0.91552734375,-0.55078125
1969/12/31/18:00:14.683000,108,1730344912,824979549,RL_myo,0.0335105537196144,0.0292378055222137,0.8767679301066348,0.4788529944086988,-27.0,-8.375,21.125,0.08251953125,0.8779296875,-0.4873046875
1969/12/31/18:00:14.699000,109,1730344912,840710269,RL_myo,0.0316788196564938,0.0329606216079127,0.8747993127492686,0.482323762862456,-21.0625,-3.125,20.875,0.03759765625,0.8779296875,-0.54052734375
1969/12/31/18:00:14.722000,110,1730344912,863962483,RL_myo,0.0289925072191986,0.0358896720945027,0.8741088334445126,0.4835339835589295,-6.4375,2.0,17.1875,0.0712890625,0.8935546875,-0.55029296875
1969/12/31/18:00:14.760000,111,1730344912,901542559,RL_myo,0.0261236450479278,0.0382699192641372,0.8744707070132283,0.4828601775097123,8.1875,4.875,15.0625,0.0693359375,0.90673828125,-0.52197265625
1969/12/31/18:00:14.762000,112,1730344912,904001516,RL_myo,0.0244761395549825,0.0404680312342978,0.8745489464932421,0.4826255248410152,3.8125,0.75,13.125,0.0361328125,0.9970703125,-0.59912109375
1969/12/31/18:00:14.782000,113,1730344912,923868832,RL_myo,0.0232552862153287,0.0427872851363397,0.8730193142725647,0.4852480981938677,-14.25,-2.625,11.5,0.06689453125,1.0322265625,-0.603515625
1969/12/31/18:00:14.804000,114,1730344912,946343147,RL_myo,0.0214855211205139,0.0456567323810921,0.8708350279158311,0.4889787207285149,-23.0625,-1.4375,15.875,0.08251953125,0.88134765625,-0.52001953125
1969/12/31/18:00:14.819000,115,1730344912,960725812,RL_myo,0.0184941848502032,0.0484633094754501,0.8693487617869481,0.4914692290885702,-17.875,4.1875,17.375,0.10986328125,0.82470703125,-0.53466796875
1969/12/31/18:00:14.842000,116,1730344912,983931390,RL_myo,0.0151373505682322,0.050417143424838,0.8692989790030801,0.4914755918363152,0.3125,8.4375,14.5625,0.10205078125,0.87841796875,-0.5458984375
1969/12/31/18:00:14.865000,117,1730344913,6613308,RL_myo,0.0127567807855974,0.0515764582001427,0.8697194708802763,0.4906782810307068,10.125,8.1875,12.0625,0.03125,0.9970703125,-0.533203125
1969/12/31/18:00:14.879000,118,1730344913,20686073,RL_myo,0.0114143643440484,0.0524938681063191,0.8698111866454042,0.49045143050497,4.875,4.0625,8.5,0.0322265625,0.9892578125,-0.5478515625
1969/12/31/18:00:14.902000,119,1730344913,43839925,RL_myo,0.0093390471543984,0.0537758205426471,0.8694469782173284,0.4910019301305946,-3.5625,4.9375,9.25,0.09375,0.9267578125,-0.56884765625
1969/12/31/18:00:14.925000,120,1730344913,66700011,RL_myo,0.0063480631925118,0.0553013966578434,0.868585954129263,0.4924021709037782,-8.75,8.6875,12.6875,0.10791015625,0.94091796875,-0.57470703125
1969/12/31/18:00:14.939000,121,1730344913,80709125,RL_myo,0.0045168591347864,0.0557893141783081,0.868152533433344,0.4931311479721568,-5.1875,7.875,7.625,0.05078125,0.9013671875,-0.5537109375
1969/12/31/18:00:14.962000,122,1730344913,104032913,RL_myo,0.0037844000948287,0.0559724981767415,0.8679704733623383,0.4934369413967049,-0.5,4.0,4.5,0.0283203125,0.9091796875,-0.52392578125
1969/12/31/18:00:14.984000,123,1730344913,126390488,RL_myo,0.002868797847028,0.0565824596637232,0.8676587530958216,0.4939215357053386,-1.9375,1.75,3.5,0.08740234375,0.9384765625,-0.5400390625
1969/12/31/18:00:14.999000,124,1730344913,140767079,RL_myo,0.0015869615238816,0.0568864669329885,0.8670913618562603,0.4948878475243248,-4.6875,4.3125,3.1875,0.09716796875,0.96484375,-0.5498046875
1969/12/31/18:00:15.029000,125,1730344913,171222719,RL_myo,0.001709048266038,0.0568868922838374,0.8669147329477928,0.4951967350845203,-1.1875,1.875,3.375,-0.0048828125,0.921875,-0.533203125
1969/12/31/18:00:15.045000,126,1730344913,186417798,RL_myo,0.0014648668962792,0.0571298089548912,0.8673232748386798,0.4944536136149293,4.75,0.75,3.125,0.03515625,0.8779296875,-0.5244140625
1969/12/31/18:00:15.059000,127,1730344913,200813221,RL_myo,0.0,0.0573747921771975,0.8680683982384084,0.4931180276591268,9.0625,4.25,1.375,0.115234375,0.8515625,-0.51220703125
1969/12/31/18:00:15.082000,128,1730344913,223964652,RL_myo,-0.0012207700738647,0.0574982704790315,0.8688831000732627,0.4916651472490433,11.375,3.1875,0.875,0.10400390625,0.84423828125,-0.48681640625
1969/12/31/18:00:15.105000,129,1730344913,246461365,RL_myo,-0.0010376584210631,0.0573764068117248,0.8699239892347901,0.4898358134724382,11.3125,-0.5,-0.6875,0.0458984375,0.853515625,-0.53369140625
1969/12/31/18:00:15.119000,130,1730344913,260841046,RL_myo,-0.0003051820961814,0.0579235618552308,0.8703793383093698,0.4889627545018486,5.125,-5.25,1.125,0.048828125,0.869140625,-0.537109375
1969/12/31/18:00:15.142000,131,1730344913,283875471,RL_myo,-0.0012818007432041,0.0596952917549367,0.8699764758518537,0.4894647695121037,-3.125,-3.125,6.5,0.14208984375,0.8154296875,-0.49169921875
1969/12/31/18:00:15.165000,132,1730344913,306893181,RL_myo,-0.0027467724242024,0.0617108204637485,0.8702385433745425,0.4887423733464237,-0.25,0.1875,11.6875,0.09912109375,0.76171875,-0.55419921875
1969/12/31/18:00:15.187000,133,1730344913,329145530,RL_myo,-0.0049439332435155,0.0636607700368726,0.871230902690623,0.4867027615283051,5.9375,4.125,13.125,0.10791015625,0.83642578125,-0.646484375
1969/12/31/18:00:15.202000,134,1730344913,344118202,RL_myo,-0.0056766772441226,0.0647019126749459,0.8713394372026925,0.4863630567867638,-2.6875,2.4375,9.9375,0.03759765625,0.9208984375,-0.6572265625
1969/12/31/18:00:15.225000,135,1730344913,366453134,RL_myo,-0.0050050584822373,0.0664085808374902,0.869720467236579,0.4890308360937238,-20.625,-4.0,11.875,0.00244140625,0.95947265625,-0.62451171875
1969/12/31/18:00:15.246000,136,1730344913,387465788,RL_myo,-0.0043946609051169,0.0687276135994682,0.8675793070185092,0.4925072061581786,-25.3125,-8.0625,10.0625,0.07666015625,0.83056640625,-0.5341796875
1969/12/31/18:00:15.262000,137,1730344913,403816178,RL_myo,-0.0051270785457382,0.0703752567051928,0.8675138972687823,0.4923826503389338,-19.5625,-0.8125,7.875,0.13330078125,0.978515625,-0.919921875
1969/12/31/18:00:15.285000,138,1730344913,426658744,RL_myo,-0.0015869882479085,0.0703157869842577,0.8644202910339049,0.4978260057670194,-19.25,-20.625,-15.6875,0.20361328125,1.15966796875,-0.38623046875
1969/12/31/18:00:15.313000,139,1730344913,455002701,RL_myo,-0.0003051943849598,0.0705609418027115,0.8635169928053287,0.4993590526712655,-18.5,-4.375,0.3125,0.02001953125,0.7041015625,-0.541015625
1969/12/31/18:00:15.322000,140,1730344913,464010124,RL_myo,-0.0006103782590578,0.0717194454392926,0.8639904256963301,0.4983738485207019,8.9375,2.4375,14.875,-0.0546875,1.00732421875,-0.54443359375
1969/12/31/18:00:15.345000,141,1730344913,486318446,RL_myo,0.0019532020896967,0.0703763127943874,0.8665503146070415,0.4940990911279848,25.25,-10.25,-14.9375,0.060546875,0.8935546875,-0.5693359375
1969/12/31/18:00:15.366000,142,1730344913,507392375,RL_myo,0.0026857097921482,0.0703778043260661,0.868033612594091,0.4914848919631264,28.3125,-9.625,-9.25,0.1865234375,0.97314453125,-0.39697265625
1969/12/31/18:00:15.382000,143,1730344913,523926486,RL_myo,0.0018921974636622,0.0693398812490422,0.8683965585652494,0.490994722506422,13.375,3.8125,-6.6875,0.13427734375,0.9912109375,-0.443359375
1969/12/31/18:00:15.405000,144,1730344913,546836812,RL_myo,0.0009155749680399,0.0678135859661555,0.8682092230266394,0.491541681175023,1.625,8.5625,-5.5,0.0791015625,0.88427734375,-0.46240234375
1969/12/31/18:00:15.426000,145,1730344913,567530889,RL_myo,-0.0001831191529495,0.0671436894148262,0.8682899835690036,0.4914918065165284,2.25,7.3125,-0.1875,0.060546875,0.8095703125,-0.4619140625
1969/12/31/18:00:15.442000,146,1730344913,583955840,RL_myo,-0.0016480488068736,0.0657388357408484,0.8671178277943294,0.493743214770402,-14.0,10.125,-5.3125,0.11572265625,0.84130859375,-0.505859375
1969/12/31/18:00:15.464000,147,1730344913,606231765,RL_myo,-0.0034791553183527,0.0646390435462379,0.8654551448933978,0.4967867567732114,-26.5,12.5625,-2.5,0.11181640625,0.87646484375,-0.634765625
1969/12/31/18:00:15.486000,148,1730344913,627409619,RL_myo,-0.0050050033917532,0.0637832749314896,0.8620202792894055,0.5028197309910163,-44.3125,10.3125,-2.8125,0.142578125,0.8935546875,-0.5966796875
1969/12/31/18:00:15.510000,149,1730344913,651386790,RL_myo,-0.0067141223528263,0.0636010499240462,0.8565388997928415,0.5121044230928483,-73.0,9.4375,-1.9375,0.201171875,0.87353515625,-0.66845703125
1969/12/31/18:00:15.525000,150,1730344913,666371862,RL_myo,-0.0099490931949596,0.0614646432351189,0.8489079027944726,0.5248604440702955,-96.0,21.1875,-11.5,0.29345703125,0.94775390625,-0.669921875
1969/12/31/18:00:15.546000,151,1730344913,687534064,RL_myo,-0.0102545633703331,0.0552403562509018,0.8373339304418467,0.54379705396606,-129.0,26.0625,-29.625,0.2998046875,1.0439453125,-0.62939453125
1969/12/31/18:00:15.561000,152,1730344913,703307052,RL_myo,-0.0104372859565353,0.0457165332248244,0.8214327158073262,0.5683743089313287,-170.375,37.8125,-46.0625,0.35546875,1.02197265625,-0.59423828125
1969/12/31/18:00:15.592000,153,1730344913,733939887,RL_myo,-0.0129399894432575,0.0318006344336658,0.8011806671330102,0.5974368710877573,-204.8125,63.8125,-60.75,0.48388671875,0.9853515625,-0.50048828125
1969/12/31/18:00:15.606000,154,1730344913,747450955,RL_myo,-0.0184948373349393,0.0126350868921862,0.7783091447452527,0.6274816099114734,-217.0625,96.125,-76.0,0.56982421875,0.85888671875,-0.35205078125
1969/12/31/18:00:15.621000,155,1730344913,763148104,RL_myo,-0.0268570521429481,-0.0094610070049021,0.7549273202363229,0.655189994778193,-209.1875,119.625,-79.6875,0.6025390625,0.61474609375,-0.3193359375
1969/12/31/18:00:15.645000,156,1730344913,786928818,RL_myo,-0.0365009452456234,-0.034120448816561,0.7358785884301617,0.6752674870440344,-159.3125,135.125,-84.5,0.59033203125,0.57080078125,-0.27001953125
1969/12/31/18:00:15.666000,157,1730344913,807418450,RL_myo,-0.0443745272076842,-0.0637845679945392,0.7258012421273364,0.6835020022993787,-71.5625,147.75,-107.8125,0.53955078125,0.6279296875,-0.16357421875
1969/12/31/18:00:15.681000,158,1730344913,823135218,RL_myo,-0.0488914149449326,-0.0980269817747338,0.7211025919593438,0.6841135814017543,-14.0625,153.5,-135.1875,0.45947265625,0.64501953125,-0.04296875
1969/12/31/18:00:15.705000,159,1730344913,846402682,RL_myo,-0.0505389179495445,-0.1335497010550765,0.7159680042852138,0.6833740644481887,-6.6875,147.625,-151.8125,0.40869140625,0.7041015625,0.05908203125
1969/12/31/18:00:15.727000,160,1730344913,868857857,RL_myo,-0.050906093588239,-0.1680999781079262,0.7053606924528669,0.6867439555890624,-42.8125,137.3125,-156.3125,0.2802734375,0.734375,0.14013671875
1969/12/31/18:00:15.749000,161,1730344913,891277268,RL_myo,-0.0496237808403593,-0.1991665398303721,0.689666789317614,0.6944277424609695,-81.0625,114.3125,-151.0,0.0263671875,0.70556640625,0.07421875
1969/12/31/18:00:15.765000,162,1730344913,906432070,RL_myo,-0.0451054447404489,-0.22601550997819,0.6713936294248151,0.7043529530511241,-97.1875,83.5,-148.0625,-0.16162109375,0.65869140625,0.10888671875
1969/12/31/18:00:15.787000,163,1730344913,928912432,RL_myo,-0.0358278699569647,-0.248780916430304,0.6530804234063428,0.7143601192100781,-91.4375,48.8125,-152.375,-0.142578125,0.59033203125,0.2119140625
1969/12/31/18:00:15.801000,164,1730344913,943221610,RL_myo,-0.0241710189967575,-0.2675902709135986,0.6323529212283034,0.726595480144954,-106.3125,21.4375,-150.5,-0.16748046875,0.47900390625,0.263671875
1969/12/31/18:00:15.824000,165,1730344913,966214382,RL_myo,-0.0134888783229117,-0.280275698003669,0.6112109842789072,0.7400572383045485,-113.75,-1.8125,-121.0,-0.4111328125,0.3759765625,0.3544921875
1969/12/31/18:00:15.847000,166,1730344913,988861748,RL_myo,-0.0012207284711329,-0.2870542999869234,0.5921753813466151,0.7529453209948304,-87.4375,-28.1875,-82.25,-0.60302734375,0.41455078125,0.359375
1969/12/31/18:00:15.869000,167,1730344914,11327774,RL_myo,0.0101324144331752,-0.2843179905405451,0.5773034681263366,0.7653635215517165,-68.4375,-64.875,-42.1875,-0.63427734375,0.54541015625,0.42236328125
1969/12/31/18:00:15.884000,168,1730344914,26160583,RL_myo,0.0158081080010112,-0.2694092228434887,0.559204191140019,0.7838746372856651,-127.4375,-114.875,0.625,-0.62451171875,0.64404296875,0.37841796875
1969/12/31/18:00:15.907000,169,1730344914,48773284,RL_myo,0.0148927817100138,-0.2446932863747759,0.53833743722263,0.8062854360216489,-165.0,-146.5,58.9375,-0.79541015625,0.84228515625,0.28759765625
1969/12/31/18:00:15.928000,170,1730344914,69871179,RL_myo,0.011597406612641,-0.2074715004019306,0.5177936857633355,0.8298860016077225,-168.8125,-200.5,113.0625,-0.9677734375,0.783203125,0.400390625
1969/12/31/18:00:15.952000,171,1730344914,93816651,RL_myo,0.0130621619011603,-0.1603471930577021,0.4888544610579127,0.8574027487177549,-211.9375,-266.875,108.875,-0.7607421875,0.56689453125,0.5537109375
1969/12/31/18:00:15.967000,172,1730344914,108758825,RL_myo,0.0197151754964601,-0.1087081348581907,0.4604683713476646,0.8807739393619832,-195.0,-299.8125,93.4375,-0.58544921875,0.75244140625,0.55224609375
1969/12/31/18:00:15.988000,173,1730344914,129899254,RL_myo,0.0276495414859594,-0.0550549369102327,0.4387304728500584,0.8965043385116386,-140.1875,-308.5,95.5,-0.50927734375,0.74609375,0.62353515625
1969/12/31/18:00:16.004000,174,1730344914,146339003,RL_myo,0.0338755239532785,-0.0019531833630719,0.4215824215230542,0.906155006505178,-100.5,-300.25,104.375,-0.54150390625,0.78662109375,0.7900390625
1969/12/31/18:00:16.027000,175,1730344914,169177814,RL_myo,0.0363787147409208,0.0492577563689985,0.4062086352362894,0.9117262786663344,-83.9375,-280.75,117.9375,-0.3984375,0.9208984375,0.80908203125
1969/12/31/18:00:16.065000,176,1730344914,206933098,RL_myo,0.032593628675623,0.0977808860268691,0.392344279263867,0.9140254483472944,-69.125,-253.9375,145.3125,-0.4287109375,0.99951171875,0.73583984375
1969/12/31/18:00:16.067000,177,1730344914,209336930,RL_myo,0.0243535857574599,0.1452670027637963,0.3806239618634597,0.912923764847942,-48.9375,-240.9375,165.75,-0.4296875,0.96484375,0.646484375
1969/12/31/18:00:16.087000,178,1730344914,228874001,RL_myo,0.0145266864220231,0.1902507629304462,0.3717122702105926,0.9085282663521628,-26.125,-225.3125,164.5625,-0.224609375,0.93212890625,0.62841796875
1969/12/31/18:00:16.109000,179,1730344914,250681220,RL_myo,0.0022584606587457,0.2283486844423786,0.3631238502399654,0.9033232240210538,-18.625,-182.0,157.875,0.15771484375,0.83251953125,0.66650390625
1969/12/31/18:00:16.125000,180,1730344914,266453064,RL_myo,-0.0119021584187908,0.2587346130115612,0.3555998715275668,0.8980331118752302,-9.6875,-138.4375,150.5,0.2275390625,0.80419921875,0.72998046875
1969/12/31/18:00:16.147000,181,1730344914,288845792,RL_myo,-0.0271614792141494,0.2860195316797854,0.351329155857628,0.891079629319929,12.375,-124.9375,147.4375,0.10888671875,0.81982421875,0.73193359375
1969/12/31/18:00:16.168000,182,1730344914,309894264,RL_myo,-0.0424205048838026,0.3112871581401345,0.3462001492099692,0.8839944924203076,6.875,-110.5,141.875,0.5771484375,0.96435546875,0.69677734375
1969/12/31/18:00:16.184000,183,1730344914,326342076,RL_myo,-0.0510886699903152,0.3233784630928195,0.326308279292981,0.8867577032488642,-95.8125,-36.125,106.1875,0.7119140625,0.96533203125,0.83447265625
1969/12/31/18:00:16.214000,184,1730344914,356374206,RL_myo,-0.0571316260934945,0.3335119711269809,0.300612455673569,0.8917050487178008,-130.3125,-26.875,97.4375,0.65478515625,0.66748046875,0.95068359375
1969/12/31/18:00:16.228000,185,1730344914,370064787,RL_myo,-0.0637863138672953,0.3416993158173391,0.2788896345068635,0.8952058173949794,-103.8125,-20.25,88.375,0.62109375,0.40234375,0.91650390625
1969/12/31/18:00:16.253000,186,1730344914,395356392,RL_myo,-0.073247178680426,0.3460318799494459,0.261675545835822,0.898010410622023,-67.875,-2.5,84.1875,0.580078125,0.28466796875,0.69921875
1969/12/31/18:00:16.267000,187,1730344914,408908102,RL_myo,-0.0849022844825917,0.3510840692623062,0.2491524983881665,0.8985847822808887,-39.6875,-7.5,90.625,0.47900390625,0.244140625,0.56396484375
1969/12/31/18:00:16.288000,188,1730344914,429909377,RL_myo,-0.0994893383368061,0.3587719820513781,0.2412769045677267,0.896197518281794,-10.0625,-20.0,101.875,0.6162109375,0.2041015625,0.576171875
1969/12/31/18:00:16.304000,189,1730344914,445863405,RL_myo,-0.1161561260381344,0.3659253681548165,0.2381109026141683,0.8921376448625185,25.0,-15.5625,95.0625,0.86962890625,0.2392578125,0.669921875
1969/12/31/18:00:16.327000,190,1730344914,469009968,RL_myo,-0.1292772350791648,0.3693984073178025,0.2385952369803849,0.8887657318166757,33.25,-0.375,68.0,0.93115234375,0.3251953125,0.65673828125
1969/12/31/18:00:16.348000,191,1730344914,489987914,RL_myo,-0.1392311389378191,0.3703267513966456,0.2427541602611603,0.8857444353909223,44.5625,7.5,42.6875,0.8271484375,0.3193359375,0.5390625
1969/12/31/18:00:16.364000,192,1730344914,506382128,RL_myo,-0.1472210742303644,0.36963964574589,0.2476268234463467,0.883387482311801,42.75,13.3125,30.375,0.7802734375,0.33447265625,0.49560546875
1969/12/31/18:00:16.387000,193,1730344914,528876253,RL_myo,-0.1532008315550044,0.3695741175559967,0.2521404920931168,0.8811184080988221,40.25,6.8125,16.9375,0.7626953125,0.23974609375,0.50390625
1969/12/31/18:00:16.408000,194,1730344914,549873660,RL_myo,-0.1565649096471033,0.3709337060138195,0.2545324262099107,0.8792660910200871,27.3125,-3.6875,5.125,0.75,0.13671875,0.52685546875
1969/12/31/18:00:16.424000,195,1730344914,565743929,RL_myo,-0.158882764281605,0.372577945898931,0.2570323935420049,0.8774259456581148,25.25,-8.4375,0.25,0.70849609375,0.12646484375,0.51806640625
1969/12/31/18:00:16.447000,196,1730344914,588871356,RL_myo,-0.1611375569158424,0.3745227459225791,0.260749864827454,0.8750868005691032,34.0,-14.0,-3.25,0.71728515625,0.1025390625,0.5517578125
1969/12/31/18:00:16.468000,197,1730344914,610012460,RL_myo,-0.1600977853946187,0.376043635461779,0.2697186861070608,0.871901206390442,59.6875,-27.9375,-34.4375,0.6357421875,0.00439453125,0.55908203125
1969/12/31/18:00:16.484000,198,1730344914,625742954,RL_myo,-0.1596773753043666,0.3770363712748749,0.2933522422449488,0.8638814574475158,130.375,-43.5,-47.25,0.93310546875,0.24853515625,0.591796875
1969/12/31/18:00:16.507000,199,1730344914,648851686,RL_myo,-0.1575368570491317,0.3736083308786266,0.3136698598897667,0.8586094413444929,107.4375,-15.5,-55.1875,0.89404296875,0.5166015625,0.54931640625
1969/12/31/18:00:16.507000,1,1730344920,646687673,RL_myo,-0.1045570353984901,0.3636607220690043,0.3791031797198029,0.8444521802324061,-10.0625,-131.4375,152.4375,0.3564453125,0.5615234375,0.3779296875
1969/12/31/18:00:16.531000,2,1730344920,670616108,RL_myo,-0.1216528548451831,0.3851017868631513,0.3564129550632335,0.8425360539026909,-86.75,-61.4375,189.0625,0.6884765625,1.3642578125,0.75146484375
1969/12/31/18:00:16.552000,3,1730344920,691689450,RL_myo,-0.1308014221271286,0.4032077436172711,0.3310624888555977,0.843037443966356,-121.5,-54.0,150.3125,0.70947265625,1.4267578125,0.74365234375
1969/12/31/18:00:16.574000,4,1730344920,714231199,RL_myo,-0.1378866371545765,0.4054807129782434,0.3166082279419161,0.846363926863815,-33.125,-32.125,72.375,0.95751953125,0.56982421875,1.5439453125
1969/12/31/18:00:16.589000,5,1730344920,729170907,RL_myo,-0.1486821452143197,0.4035047873611936,0.3151866165380735,0.8460111719276213,42.5625,4.75,37.9375,0.7666015625,0.14990234375,0.92724609375
1969/12/31/18:00:16.612000,6,1730344920,751818034,RL_myo,-0.1622409908002088,0.391685642575222,0.3424884121068366,0.8384282353768505,187.9375,40.3125,-12.375,0.7998046875,0.4716796875,0.51904296875
1969/12/31/18:00:16.634000,7,1730344920,774315561,RL_myo,-0.1733454794086158,0.3772705662762867,0.3860599145279912,0.8237572500347461,277.0625,20.3125,-62.6875,1.02734375,0.41064453125,0.3779296875
1969/12/31/18:00:16.649000,8,1730344920,789267156,RL_myo,-0.198192299501565,0.3609822172011875,0.421776652157627,0.8077846909774291,272.625,64.1875,19.8125,1.33642578125,0.9208984375,0.51611328125
1969/12/31/18:00:16.675000,9,1730344920,814681703,RL_myo,-0.2182774215853578,0.3398071605049461,0.4473588430646218,0.797970003463474,207.4375,96.4375,2.125,1.3193359375,1.17822265625,0.71533203125
1969/12/31/18:00:16.687000,10,1730344920,826668539,RL_myo,-0.2215092634448766,0.3144711284838811,0.4584002668699431,0.8011933292856024,79.3125,115.0625,-71.6875,1.181640625,1.32666015625,0.75439453125
1969/12/31/18:00:16.709000,11,1730344920,849304879,RL_myo,-0.2143091914603491,0.2831615890585474,0.4606030073368826,0.8134715450276484,2.25,144.75,-131.5,1.06201171875,1.3134765625,0.63623046875
1969/12/31/18:00:16.732000,12,1730344920,871781988,RL_myo,-0.1991019737319308,0.2441471167773523,0.4583251749702847,0.8310767855101076,-36.125,174.5625,-190.875,0.92529296875,1.1337890625,0.5908203125
1969/12/31/18:00:16.747000,13,1730344920,886828464,RL_myo,-0.1779898417786565,0.1945314217244781,0.4555343584341953,0.8502738326394668,-38.125,212.25,-249.75,0.66162109375,0.9091796875,0.54736328125
1969/12/31/18:00:16.769000,14,1730344920,909222205,RL_myo,-0.1556474386739388,0.137580128145513,0.4577255461238695,0.8644841858584297,4.4375,233.8125,-273.875,0.32568359375,0.798828125,0.39501953125
1969/12/31/18:00:16.792000,15,1730344920,931705119,RL_myo,-0.1310459888525514,0.0824607037446655,0.4670535196552042,0.8705677405700704,58.5625,204.5,-277.4375,0.06005859375,0.68017578125,0.3525390625
1969/12/31/18:00:16.810000,16,1730344920,949685962,RL_myo,-0.1045538795391908,0.0265504597779031,0.4861480738643637,0.8671929483320627,130.125,192.0625,-286.875,-0.01904296875,0.5908203125,0.1064453125
1969/12/31/18:00:16.829000,17,1730344920,969292314,RL_myo,-0.0771493455573611,-0.0317996906925515,0.5127013470584124,0.854502245097354,192.9375,191.9375,-287.4375,-0.51708984375,0.6376953125,-0.029296875
1969/12/31/18:00:16.852000,18,1730344920,991779703,RL_myo,-0.0527366654715181,-0.087100950958167,0.5412222369629064,0.8346920142627433,223.75,185.75,-259.6875,-0.6640625,0.72412109375,0.091796875
1969/12/31/18:00:16.867000,19,1730344921,6638187,RL_myo,-0.0352188577601832,-0.1371521202549945,0.5630744589907987,0.8141843044420881,193.0,185.625,-213.125,-0.73193359375,0.7646484375,0.30810546875
1969/12/31/18:00:16.891000,20,1730344921,30637602,RL_myo,-0.0274670492360039,-0.1845785708659466,0.5787612463461991,0.7938587608077057,158.1875,207.25,-164.25,-0.763671875,0.755859375,0.42822265625
1969/12/31/18:00:16.915000,21,1730344921,54650592,RL_myo,-0.0275282069132312,-0.2309073320460175,0.5906662046548536,0.7726819763073053,137.9375,231.75,-128.75,-0.79833984375,0.63720703125,0.5078125
1969/12/31/18:00:16.928000,22,1730344921,68221472,RL_myo,-0.0319222454489576,-0.2727734510734068,0.5992592845465895,0.7519733535968611,116.0625,227.0625,-97.0625,-0.8994140625,0.5263671875,0.47900390625
1969/12/31/18:00:16.950000,23,1730344921,89287111,RL_myo,-0.0385151703434485,-0.3075720180041792,0.6091622821356835,0.7299570873808254,121.625,207.5,-62.6875,-0.79931640625,0.494140625,0.47216796875
1969/12/31/18:00:16.972000,24,1730344921,111578306,RL_myo,-0.0461437754167817,-0.3361293270108692,0.6155555225902698,0.7113221676020828,89.1875,178.9375,-43.5625,-0.7841796875,0.4580078125,0.2783203125
1969/12/31/18:00:16.988000,25,1730344921,128223243,RL_myo,-0.0546890576598978,-0.3519997717908826,0.6173271530939807,0.7014359940039574,32.375,114.75,-7.375,-0.80126953125,0.607421875,0.154296875
1969/12/31/18:00:17.010000,26,1730344921,149295687,RL_myo,-0.0610980192384973,-0.3579819009328541,0.6264225488958025,0.6897178994955245,66.5625,68.0625,51.5,-0.6552734375,0.578125,-0.03857421875
1969/12/31/18:00:17.033000,27,1730344921,173137174,RL_myo,-0.0675049684399974,-0.3560185180022652,0.6389778613004824,0.6785286927192151,85.1875,39.125,83.8125,-0.5,0.35986328125,0.1162109375
1969/12/31/18:00:17.048000,28,1730344921,188232391,RL_myo,-0.0778225763990775,-0.3469971347676515,0.6541979402708337,0.6675040749022053,78.5,20.9375,113.4375,-0.39404296875,0.25244140625,0.2021484375
1969/12/31/18:00:17.069000,29,1730344921,209301165,RL_myo,-0.0891774525805513,-0.3292424224637194,0.6695328387105187,0.6598276950005203,58.0625,-16.0625,146.8125,-0.30859375,0.3935546875,0.01953125
1969/12/31/18:00:17.092000,30,1730344921,231768733,RL_myo,-0.0991207562527918,-0.3039540431889798,0.6883521484107057,0.6511208298674772,71.125,-51.125,173.8125,-0.111328125,0.56005859375,-0.18310546875
1969/12/31/18:00:17.108000,31,1730344921,248134991,RL_myo,-0.109134821973195,-0.2765603346535497,0.7069958852995071,0.6416858967585011,76.3125,-57.0625,178.875,0.16455078125,0.53125,0.0615234375
1969/12/31/18:00:17.129000,32,1730344921,269300872,RL_myo,-0.1216472626188992,-0.2478112826054846,0.7215825081187289,0.6349095964685347,46.3125,-54.1875,182.9375,0.33740234375,0.46435546875,0.10888671875
1969/12/31/18:00:17.152000,33,1730344921,291753346,RL_myo,-0.1336101694430749,-0.2172920069517345,0.735679932525072,0.6274611886134357,42.0,-62.5,186.5625,0.47314453125,0.36572265625,-0.17822265625
1969/12/31/18:00:17.168000,34,1730344921,308241874,RL_myo,-0.141426557131695,-0.1883042420160893,0.7515689244551405,0.6161851938905745,69.4375,-71.75,168.0,0.62744140625,0.52001953125,-0.328125
1969/12/31/18:00:17.190000,35,1730344921,329355800,RL_myo,-0.1445361560714887,-0.1679744516506491,0.7714495255859573,0.5964557927071742,133.0625,-56.125,123.625,0.74853515625,0.65234375,-0.32421875
1969/12/31/18:00:17.220000,36,1730344921,359810239,RL_myo,-0.1488703236613139,-0.1555844423996265,0.790923187373229,0.5727753658211437,154.0625,-19.875,96.0625,0.75244140625,0.8154296875,-0.42333984375
1969/12/31/18:00:17.228000,37,1730344921,368133541,RL_myo,-0.1541821798180726,-0.1475900676168249,0.8041156124003521,0.5548361102716867,108.6875,0.0625,72.375,0.6142578125,1.05712890625,-0.65234375
1969/12/31/18:00:17.249000,38,1730344921,389228268,RL_myo,-0.1619903853862768,-0.140566638110247,0.8102571085165128,0.5454205289418876,37.25,7.5,43.6875,0.54638671875,1.181640625,-0.63916015625
1969/12/31/18:00:17.272000,39,1730344921,411673909,RL_myo,-0.1702953315688629,-0.1359921142420883,0.8117410804782464,0.5418321356045863,-2.25,19.0625,30.0,0.48046875,1.07861328125,-0.60595703125
1969/12/31/18:00:17.294000,40,1730344921,434176046,RL_myo,-0.1784714821913985,-0.1323276926781641,0.8092863824814476,0.5437764825045038,-41.8125,26.625,29.6875,0.30224609375,1.06884765625,-0.62548828125
1969/12/31/18:00:17.309000,41,1730344921,449022239,RL_myo,-0.1839050849318481,-0.1294599021375539,0.8074611246476664,0.5453673859495729,-31.9375,19.1875,29.0,0.14306640625,0.9921875,-0.54052734375
1969/12/31/18:00:17.327000,42,1730344921,467119485,RL_myo,-0.1900100246742923,-0.1250049889280278,0.8048416914086794,0.5481786159973722,-36.125,16.625,36.125,0.13720703125,0.8974609375,-0.4072265625
1969/12/31/18:00:17.350000,43,1730344921,489618778,RL_myo,-0.1958054865094518,-0.120425257133151,0.8025705555214409,0.5504893026274146,-32.875,16.1875,41.1875,0.091796875,0.931640625,-0.40576171875
1969/12/31/18:00:17.377000,44,1730344921,516784619,RL_myo,-0.199101013540788,-0.1189601089488031,0.8045219066465747,0.546764831176695,13.1875,14.4375,29.1875,0.09619140625,0.9482421875,-0.423828125
1969/12/31/18:00:17.392000,45,1730344921,531786233,RL_myo,-0.199348485896864,-0.1202438815728175,0.8093572942414015,0.5392053044742489,42.5625,9.1875,13.375,0.0986328125,0.96728515625,-0.490234375
1969/12/31/18:00:17.410000,46,1730344921,549577772,RL_myo,-0.1960517755971119,-0.122807027553359,0.8164347915276993,0.529071230036042,67.375,-3.0625,5.375,0.0498046875,1.05078125,-0.517578125
1969/12/31/18:00:17.429000,47,1730344921,569244196,RL_myo,-0.1937922352818673,-0.1224400705434412,0.8196648590866762,0.5249785876092413,29.5625,-8.75,10.125,0.1142578125,1.17919921875,-0.49365234375
1969/12/31/18:00:17.452000,48,1730344921,591767333,RL_myo,-0.1941623069126736,-0.1207944688400443,0.818521388148052,0.5270032561722805,-8.9375,-5.0625,5.0625,0.2529296875,1.1640625,-0.38134765625
1969/12/31/18:00:17.470000,49,1730344921,609555125,RL_myo,-0.1976350441638191,-0.1173114746395492,0.8153208523595725,0.5314417324071566,-37.75,4.6875,15.4375,0.2529296875,0.86962890625,-0.3525390625
1969/12/31/18:00:17.497000,50,1730344921,636648302,RL_myo,-0.2008679675768315,-0.1138923207226884,0.8118947750553062,0.5361972334130856,-46.5625,7.3125,18.75,0.18798828125,0.87744140625,-0.4521484375
1969/12/31/18:00:17.507000,51,1730344921,647096758,RL_myo,-0.1999033071340989,-0.1131055963723619,0.8114548290200645,0.5373889209186586,-15.375,-2.5,6.8125,0.06396484375,0.82861328125,-0.43505859375
1969/12/31/18:00:17.530000,52,1730344921,669547600,RL_myo,-0.1953184749267578,-0.114139233785324,0.8116703373675078,0.53852965758712,1.0,-14.75,-7.625,0.00048828125,0.9296875,-0.32763671875
1969/12/31/18:00:17.549000,53,1730344921,689315196,RL_myo,-0.1883051502028591,-0.1170116605960716,0.814076430552847,0.5367764962346657,18.1875,-19.5,-18.875,-0.0029296875,0.98486328125,-0.45458984375
1969/12/31/18:00:17.567000,54,1730344921,707101888,RL_myo,-0.1834774598538116,-0.1170080806852152,0.8174696007392214,0.5332809603269303,26.8125,-21.3125,-3.875,0.0849609375,0.8408203125,-0.38232421875
1969/12/31/18:00:17.590000,55,1730344921,729562429,RL_myo,-0.1813389934760586,-0.1150535182438137,0.8188636608801088,0.5322980013815913,9.75,-16.875,5.5625,0.17138671875,0.9716796875,-0.36376953125
1969/12/31/18:00:17.612000,56,1730344921,752170605,RL_myo,-0.1781668944542302,-0.1141391204622852,0.8216185564400116,0.529312541523496,11.0,-14.3125,3.75,0.10009765625,0.896484375,-0.56640625
1969/12/31/18:00:17.635000,57,1730344921,774557988,RL_myo,-0.1756094693606412,-0.1123729694448872,0.8239667107748683,0.5268894471745065,12.375,-16.875,5.1875,0.1611328125,0.89111328125,-0.47021484375
1969/12/31/18:00:17.654000,58,1730344921,794290962,RL_myo,-0.1737139007259017,-0.111333153522152,0.8273078743636233,0.5224845362662399,20.75,-11.3125,4.0625,0.193359375,0.91064453125,-0.56103515625
1969/12/31/18:00:17.669000,59,1730344921,809188736,RL_myo,-0.1705983657239771,-0.1106600490366978,0.8315678478080374,0.5168611667086362,33.6875,-15.0625,4.4375,0.1357421875,0.9140625,-0.52197265625
1969/12/31/18:00:17.687000,60,1730344921,827090456,RL_myo,-0.1686448373580666,-0.109317011837965,0.8350452478811833,0.5121602715423587,28.5625,-13.5625,6.375,0.19384765625,0.90576171875,-0.49169921875
1969/12/31/18:00:17.716000,61,1730344921,855866475,RL_myo,-0.1683389525493101,-0.1077296052391343,0.8371780540849667,0.5091063100847701,14.125,-6.375,8.8125,0.22216796875,0.982421875,-0.55419921875
1969/12/31/18:00:17.730000,62,1730344921,869347166,RL_myo,-0.1693174053439114,-0.1060217494889596,0.8388963298654356,0.5063042095629939,13.375,-0.0625,13.625,0.1904296875,0.87939453125,-0.47509765625
1969/12/31/18:00:17.748000,63,1730344921,887297021,RL_myo,-0.1694349621850304,-0.1042488888371873,0.8408271034081338,0.5034220346189233,10.125,-1.3125,17.0,0.111328125,0.859375,-0.5400390625
1969/12/31/18:00:17.770000,64,1730344921,909690096,RL_myo,-0.1690084977734507,-0.1025403670131445,0.8427231234229089,0.5007387922475226,10.625,-4.0,14.625,0.11474609375,0.8583984375,-0.5322265625
1969/12/31/18:00:17.791000,65,1730344921,930806694,RL_myo,-0.1690101684995035,-0.1011375403408007,0.8438301117752388,0.4991567923398121,7.0625,-3.5,9.1875,0.17724609375,0.8779296875,-0.4853515625
1969/12/31/18:00:17.807000,66,1730344921,947145363,RL_myo,-0.1691396418952855,-0.0994939069972267,0.8445995037549858,0.4981409662603482,3.6875,-3.125,11.25,0.17236328125,0.921875,-0.498046875
1969/12/31/18:00:17.837000,67,1730344921,976459877,RL_myo,-0.1688883864263822,-0.0978417359745177,0.8447471153383195,0.4983031394235578,-2.0625,-3.5625,12.0625,0.12744140625,0.95751953125,-0.48974609375
1969/12/31/18:00:17.850000,68,1730344921,989894171,RL_myo,-0.1695008906969081,-0.0962559973457054,0.8437201339947286,0.5001405467664621,-12.25,-1.1875,9.0,0.1669921875,0.9208984375,-0.44287109375
1969/12/31/18:00:17.866000,69,1730344922,6316175,RL_myo,-0.1700502764958918,-0.094852164276603,0.8423165167420343,0.5025821883227471,-17.1875,0.0625,7.8125,0.15283203125,0.89208984375,-0.439453125
1969/12/31/18:00:17.889000,70,1730344922,28867077,RL_myo,-0.1699912511173606,-0.0938766765596052,0.8419602577784103,0.5033816330214985,-9.0,-0.3125,8.4375,0.109375,0.86865234375,-0.48046875
1969/12/31/18:00:17.910000,71,1730344922,49897600,RL_myo,-0.1698657662576685,-0.0930813128073821,0.8425537324544937,0.5025780522334324,2.5625,0.0625,9.625,0.1162109375,0.908203125,-0.48876953125
1969/12/31/18:00:17.926000,72,1730344922,66277823,RL_myo,-0.1707830456818762,-0.0924718778441896,0.8430505457319781,0.5015454919113571,6.5,3.0,7.6875,0.19140625,0.92724609375,-0.4462890625
1969/12/31/18:00:17.949000,73,1730344922,88814852,RL_myo,-0.1722470479898932,-0.0916168742143266,0.8437175564721098,0.5000779816375602,7.1875,5.0625,10.625,0.201171875,0.91748046875,-0.462890625
1969/12/31/18:00:17.971000,74,1730344922,111246275,RL_myo,-0.1728554203673444,-0.0910054490705192,0.8447454159195081,0.4982411004444324,6.125,4.1875,10.875,0.14697265625,0.93017578125,-0.54541015625
1969/12/31/18:00:17.986000,75,1730344922,126360901,RL_myo,-0.1732891819647146,-0.0906426330460025,0.8461199860496211,0.4958182547021405,9.875,3.0,8.5625,0.16455078125,0.86279296875,-0.52978515625
1969/12/31/18:00:18.009000,76,1730344922,148763376,RL_myo,-0.1743212404299781,-0.0902124626594915,0.8470693888960914,0.4939101812182715,6.625,5.4375,8.125,0.1943359375,0.8779296875,-0.525390625
1969/12/31/18:00:18.030000,77,1730344922,170281734,RL_myo,-0.1737694206125844,-0.0905163508143529,0.8475455478139613,0.4932317133720741,1.8125,2.1875,3.9375,0.12158203125,0.9306640625,-0.54541015625
1969/12/31/18:00:18.046000,78,1730344922,186331416,RL_myo,-0.172132732336617,-0.0917430839368565,0.8479063066978534,0.4929588462235882,-4.25,0.75,-3.5,0.103515625,0.9140625,-0.61865234375
1969/12/31/18:00:18.069000,79,1730344922,208821880,RL_myo,-0.1718190384794655,-0.0932034357933015,0.8481085398480194,0.4924461820434559,-2.6875,4.25,-7.375,0.21044921875,0.91796875,-0.60205078125
1969/12/31/18:00:18.090000,80,1730344922,230028967,RL_myo,-0.1713936522652068,-0.0947914323247386,0.8478736551338989,0.4926957126370191,-6.375,3.5,-10.25,0.2353515625,0.97265625,-0.61328125
1969/12/31/18:00:18.113000,81,1730344922,252464758,RL_myo,-0.1684657655613072,-0.0963184703100517,0.848249544929524,0.4927623642668235,-6.3125,-4.1875,-8.1875,0.095703125,0.982421875,-0.68603515625
1969/12/31/18:00:18.129000,82,1730344922,268777500,RL_myo,-0.1645578333422489,-0.0971721330418621,0.8484250309559569,0.4936124622547355,-11.8125,-13.0,-12.25,0.14599609375,0.97509765625,-0.69384765625
1969/12/31/18:00:18.152000,83,1730344922,291442592,RL_myo,-0.1612662622781353,-0.097846259815235,0.8485095805936255,0.4944196534643814,-7.9375,-14.75,-16.25,0.2470703125,0.994140625,-0.63037109375
1969/12/31/18:00:18.166000,84,1730344922,305792853,RL_myo,-0.156436308700495,-0.0995503782639513,0.8485891532824744,0.4954935442959884,-4.0625,-17.9375,-21.3125,0.1787109375,1.05126953125,-0.609375
1969/12/31/18:00:18.198000,85,1730344922,337860487,RL_myo,-0.1483208131637749,-0.1022375975511617,0.8495791763072361,0.4957455327227079,2.5,-27.625,-27.6875,0.04052734375,1.017578125,-0.638671875
1969/12/31/18:00:18.219000,86,1730344922,358561923,RL_myo,-0.1737694206125844,-0.0905163508143529,0.8475455478139613,0.4932317133720741,1.8125,2.1875,3.9375,0.12158203125,0.9306640625,-0.54541015625
1969/12/31/18:00:18.226000,87,1730344922,365697987,RL_myo,-0.1278125381768187,-0.1073039360624868,0.8523887753769218,0.4955635135900629,4.375,-43.75,-38.1875,0.08740234375,0.95751953125,-0.64404296875
1969/12/31/18:00:18.255000,88,1730344922,394867519,RL_myo,-0.1164564436257082,-0.1091931748670817,0.8530373459711207,0.4968319974388181,-0.5,-49.1875,-38.875,0.05029296875,0.98974609375,-0.61474609375
1969/12/31/18:00:18.279000,89,1730344922,418884406,RL_myo,-0.1041285800475692,-0.1096829181392039,0.8537811123712767,0.4981814011420046,-2.625,-56.1875,-31.75,-0.03759765625,0.859375,-0.57373046875
1969/12/31/18:00:18.292000,90,1730344922,432325960,RL_myo,-0.0913128350483933,-0.1092580045030909,0.8546539547778099,0.499290769181723,-2.6875,-60.8125,-28.0,-0.0673828125,0.8017578125,-0.56298828125
1969/12/31/18:00:18.309000,91,1730344922,448708741,RL_myo,-0.0779445951292875,-0.1085242679247245,0.855681502832797,0.4999562871605278,5.875,-64.1875,-26.4375,-0.103515625,0.80712890625,-0.48193359375
1969/12/31/18:00:18.346000,92,1730344922,485481987,RL_myo,-0.0651870990108833,-0.1054712613209798,0.8573812544998863,0.4995236126451961,13.25,-68.3125,-13.9375,-0.09814453125,0.73974609375,-0.4208984375
1969/12/31/18:00:18.352000,93,1730344922,492394756,RL_myo,-0.0542621743936493,-0.1007115722716776,0.8604430510992966,0.4965385699576348,25.4375,-64.5625,-1.6875,-0.064453125,0.7060546875,-0.45361328125
1969/12/31/18:00:18.369000,94,1730344922,508838105,RL_myo,-0.0433361904004199,-0.0958279139840271,0.865075812035425,0.4904924310672882,43.4375,-63.9375,0.625,-0.06787109375,0.703125,-0.4912109375
1969/12/31/18:00:18.391000,95,1730344922,531441811,RL_myo,-0.0318003426895072,-0.090518057981841,0.8697790466899767,0.4840244098422115,53.1875,-67.75,1.375,-0.08154296875,0.734375,-0.40966796875
1969/12/31/18:00:18.413000,96,1730344922,552464634,RL_myo,-0.0222786551024911,-0.0838043656321103,0.874177803775007,0.4778008551843845,50.0,-65.125,8.0,0.00439453125,0.75830078125,-0.4404296875
1969/12/31/18:00:18.435000,97,1730344922,574939427,RL_myo,-0.0148318208378765,-0.0760512294814576,0.87819028072168,0.4719937059230436,44.125,-59.0,16.8125,0.02783203125,0.76904296875,-0.4892578125
1969/12/31/18:00:18.452000,98,1730344922,591450783,RL_myo,-0.0067141397751146,-0.0682400751688921,0.8816275901068683,0.4669379025420619,41.0625,-59.9375,19.375,-0.04443359375,0.74462890625,-0.44482421875
1969/12/31/18:00:18.473000,99,1730344922,612857755,RL_myo,0.0016479709085804,-0.0603645640217072,0.88428898235237,0.4630187893515377,32.75,-60.4375,20.1875,-0.08056640625,0.744140625,-0.46875
1969/12/31/18:00:18.489000,100,1730344922,628915703,RL_myo,0.0075686983359772,-0.0523705094537782,0.8858428947583726,0.4609581438169386,25.5,-55.0,17.875,0.0673828125,0.82958984375,-0.43408203125
1969/12/31/18:00:18.512000,101,1730344922,651475392,RL_myo,0.0115972527912239,-0.045473438576115,0.8862742659398531,0.460777164847104,12.8125,-44.625,15.125,0.0986328125,0.83203125,-0.42626953125
1969/12/31/18:00:18.533000,102,1730344922,672459418,RL_myo,0.0162966270397372,-0.0390020399939778,0.8865487181729714,0.4607001531683021,5.75,-42.625,18.0,-0.0205078125,0.83642578125,-0.53564453125
1969/12/31/18:00:18.549000,103,1730344922,688927436,RL_myo,0.0213633067596856,-0.0326553403326623,0.8861499643917615,0.4617526161057774,-1.6875,-43.625,17.25,-0.0419921875,0.85986328125,-0.55419921875
1969/12/31/18:00:18.572000,104,1730344922,711426353,RL_myo,0.0241093966908836,-0.0259404901104444,0.8849674496737258,0.4643042547532955,-12.0,-38.5,18.0,0.087890625,0.8056640625,-0.50634765625
1969/12/31/18:00:18.593000,105,1730344922,732437550,RL_myo,0.0244151299075053,-0.0197762552250793,0.8838277026516951,0.4667562460067342,-10.8125,-25.5625,19.5625,0.1259765625,0.8427734375,-0.51513671875
1969/12/31/18:00:18.617000,106,1730344922,756453650,RL_myo,0.0259415107368091,-0.0151986733493305,0.8833542197249474,0.4677406982968679,-3.1875,-21.5625,17.125,-0.02587890625,0.869140625,-0.55224609375
1969/12/31/18:00:18.637000,107,1730344922,777305067,RL_myo,0.0282600356103376,-0.0114138804732897,0.8824089304938477,0.4694950192542489,-5.875,-23.25,10.9375,-0.0390625,0.998046875,-0.5888671875
1969/12/31/18:00:18.653000,108,1730344922,792484612,RL_myo,0.0296650433158476,-0.0074467804208506,0.8812226961952518,0.471710812232244,-12.3125,-21.25,11.5625,0.0205078125,0.8857421875,-0.56298828125
1969/12/31/18:00:18.669000,109,1730344922,809290392,RL_myo,0.0297244256086242,-0.0033569679845468,0.8795866477328221,0.4747973445780045,-17.6875,-15.0625,15.4375,0.03857421875,0.841796875,-0.52685546875
1969/12/31/18:00:18.698000,110,1730344922,837425934,RL_myo,0.0298465012301033,-0.000305178949183,0.8783660515386844,0.47705573336296,-11.9375,-12.1875,11.0625,0.017578125,0.890625,-0.5380859375
1969/12/31/18:00:18.713000,111,1730344922,852385462,RL_myo,0.0306411142918515,0.0023194468985863,0.8780937653437777,0.4775008707273998,-1.8125,-12.625,8.5625,-0.01171875,0.8603515625,-0.54150390625
1969/12/31/18:00:18.735000,112,1730344922,875032169,RL_myo,0.031434000834053,0.0050660622703425,0.8775274368760787,0.4784682185206636,-1.0625,-13.3125,8.8125,-0.005859375,0.9228515625,-0.5146484375
1969/12/31/18:00:18.758000,113,1730344922,897378645,RL_myo,0.0321050979115152,0.0075074658614379,0.8764203439381119,0.4804167788242133,-6.8125,-11.9375,7.3125,0.00390625,0.95166015625,-0.5107421875
1969/12/31/18:00:18.773000,114,1730344922,912500857,RL_myo,0.0316781635785448,0.0098269447709936,0.8752694907829163,0.4824968845633858,-11.6875,-8.0,7.8125,0.0458984375,0.86083984375,-0.51513671875
1969/12/31/18:00:18.789000,115,1730344922,929365563,RL_myo,0.0304573460666003,0.0120242428359123,0.875084109332362,0.4828618531720943,-2.375,-2.3125,10.5,0.02001953125,0.8359375,-0.53564453125
1969/12/31/18:00:18.811000,116,1730344922,951343506,RL_myo,0.0296640115037726,0.013916449841276,0.8751493764219997,0.4827421131344397,2.625,-2.75,9.25,0.0009765625,0.88037109375,-0.52783203125
1969/12/31/18:00:18.833000,117,1730344922,972408841,RL_myo,0.0285651575910861,0.0155033120259313,0.8746553595732139,0.4836545058798428,-2.25,-1.9375,6.625,0.03857421875,0.953125,-0.54296875
1969/12/31/18:00:18.849000,118,1730344922,988680370,RL_myo,0.0275887034918011,0.0166630886134108,0.8736829685434564,0.4854269001555197,-12.25,-0.4375,5.1875,0.02685546875,0.90576171875,-0.5771484375
1969/12/31/18:00:18.879000,119,1730344923,18942421,RL_myo,0.0260028170720039,0.0182508035317586,0.872498279876113,0.487583339838421,-12.0,1.625,9.5625,0.021484375,0.87841796875,-0.50830078125
1969/12/31/18:00:18.893000,120,1730344923,32529012,RL_myo,0.0245380092821136,0.0192275445867308,0.8715266082836294,0.4893562696883217,-11.6875,4.1875,8.875,-0.0126953125,0.82080078125,-0.5078125
1969/12/31/18:00:18.909000,121,1730344923,48726989,RL_myo,0.0229497404430355,0.0206303517812393,0.870625259785795,0.490977957776005,-9.875,3.375,10.625,-0.0009765625,0.87841796875,-0.52099609375
1969/12/31/18:00:18.931000,122,1730344923,71334586,RL_myo,0.020569652150259,0.0224007784544364,0.870395369918974,0.4914132624977321,-0.5625,4.4375,11.125,0.0595703125,0.849609375,-0.486328125
1969/12/31/18:00:18.953000,123,1730344923,92453644,RL_myo,0.0183723883698032,0.0238047556950938,0.8708878314297424,0.4905610808242808,5.375,6.8125,13.125,-0.013671875,0.8701171875,-0.53515625
1969/12/31/18:00:18.969000,124,1730344923,108942127,RL_myo,0.0171515344118848,0.0253305579392606,0.8712491181325441,0.4898868867963989,6.5,1.625,10.375,0.00341796875,0.9375,-0.53857421875
1969/12/31/18:00:18.992000,125,1730344923,131762773,RL_myo,0.0156868006820218,0.0268567793777806,0.8715024908089831,0.4894037660251034,2.3125,0.8125,8.375,0.05078125,0.90478515625,-0.5732421875
1969/12/31/18:00:19.013000,126,1730344923,152339100,RL_myo,0.014160756089864,0.0293591537897612,0.8721682921037385,0.4881188209079429,3.8125,-1.1875,13.6875,0.05322265625,0.85400390625,-0.60302734375
1969/12/31/18:00:19.030000,127,1730344923,169463625,RL_myo,0.0120852063939511,0.0317389258831039,0.8720880250342091,0.4881690946405098,-0.5625,-0.625,10.8125,0.12451171875,0.888671875,-0.55859375
1969/12/31/18:00:19.051000,128,1730344923,191354631,RL_myo,0.0102542305348048,0.033265212151599,0.8719147808909942,0.4884187663065968,-3.3125,2.9375,9.1875,0.0703125,0.9140625,-0.58935546875
1969/12/31/18:00:19.072000,129,1730344923,212350045,RL_myo,0.0093998624861623,0.0349748130166949,0.8719898407617863,0.4881824685995217,-1.625,-1.375,9.6875,0.04248046875,0.8935546875,-0.60498046875
1969/12/31/18:00:19.089000,130,1730344923,228821398,RL_myo,0.0087893852046732,0.0365003635582959,0.8714919580022563,0.4889705894072051,-5.4375,-2.3125,7.5,0.05712890625,0.95361328125,-0.5888671875
1969/12/31/18:00:19.112000,131,1730344923,251935585,RL_myo,0.0068973504933281,0.0376607544635703,0.8702869321581618,0.4910547320249973,-11.1875,2.9375,5.6875,0.1220703125,0.91748046875,-0.5205078125
1969/12/31/18:00:19.132000,132,1730344923,272402213,RL_myo,0.0046998900769563,0.039002983885391,0.8694186267034585,0.4925118575449457,-9.5,5.625,10.1875,0.07568359375,0.873046875,-0.5283203125
1969/12/31/18:00:19.149000,133,1730344923,288647396,RL_myo,0.0042115773116999,0.0404677646037256,0.8693550094281505,0.4925103960595202,-1.5,-0.8125,9.8125,0.0146484375,0.90869140625,-0.5693359375
1969/12/31/18:00:19.171000,134,1730344923,311427624,RL_myo,0.004394698995893,0.0413834155446594,0.8689296514657407,0.4931828873168857,-2.1875,-4.25,3.3125,0.052734375,0.97314453125,-0.5400390625
1969/12/31/18:00:19.194000,135,1730344923,333934075,RL_myo,0.004761084033798,0.0427887167652877,0.8679822430847245,0.494725462742735,-10.125,-4.9375,6.4375,0.03125,0.93017578125,-0.55078125
1969/12/31/18:00:19.209000,136,1730344923,348832449,RL_myo,0.0048221107537247,0.0449249811992582,0.8674916206574163,0.4953955807244293,-7.75,-6.25,10.75,0.03369140625,0.845703125,-0.55126953125
1969/12/31/18:00:19.231000,137,1730344923,371394946,RL_myo,0.0043947064864587,0.0467547940087141,0.8669168920440825,0.496235607429303,-6.75,-5.0625,6.625,0.09912109375,0.8896484375,-0.54345703125
1969/12/31/18:00:19.254000,138,1730344923,393828376,RL_myo,0.0036622678215333,0.0478536328680354,0.8666146421688358,0.4966645543969444,-3.625,-1.5625,3.75,0.107421875,0.9013671875,-0.54296875
1969/12/31/18:00:19.269000,139,1730344923,408871117,RL_myo,0.0036012961509696,0.0488921731682492,0.8666915940274287,0.4964295185734965,-1.0625,-1.8125,6.6875,0.021484375,0.90185546875,-0.5693359375
1969/12/31/18:00:19.291000,140,1730344923,431390087,RL_myo,0.0048831907027385,0.0502968642382073,0.8667053098523128,0.4962542551658076,-1.0625,-8.0,7.5,-0.02490234375,0.9296875,-0.5751953125
1969/12/31/18:00:19.314000,141,1730344923,453822532,RL_myo,0.0048218198885425,0.0515751620989678,0.8656692592303677,0.4979291981105084,-10.75,-5.5,2.125,0.1259765625,0.9482421875,-0.54736328125
1969/12/31/18:00:19.336000,142,1730344923,476343322,RL_myo,0.002380466048973,0.0521261027134096,0.8638039878222167,0.5011186221043243,-17.8125,6.375,2.5625,0.1787109375,0.91357421875,-0.484375
1969/12/31/18:00:19.352000,143,1730344923,491791788,RL_myo,0.0004883062784899,0.052431886652859,0.862898232376563,0.5026502754205981,-13.0,9.125,7.0625,0.05078125,0.8154296875,-0.51806640625
1969/12/31/18:00:19.374000,144,1730344923,513991434,RL_myo,0.0007934997660602,0.0523709845599759,0.8620459381591378,0.5041165052224258,-8.25,1.75,4.0,-0.02197265625,0.95263671875,-0.51318359375
1969/12/31/18:00:19.389000,145,1730344923,528675723,RL_myo,0.0021363883347373,0.0521278753675924,0.8610865782325838,0.5057746783324016,-8.5,-3.75,-2.25,0.00732421875,0.943359375,-0.48046875
1969/12/31/18:00:19.412000,146,1730344923,552007171,RL_myo,0.0016480175572029,0.0527365618304937,0.8598379010488031,0.5078335583677179,-10.0,-0.25,3.1875,0.08154296875,0.89453125,-0.43896484375
1969/12/31/18:00:19.434000,147,1730344923,573879483,RL_myo,0.0004272664272966,0.0534083034120751,0.8599042039649314,0.5076535536894048,0.4375,4.125,7.0,0.04541015625,0.83935546875,-0.4775390625
1969/12/31/18:00:19.448000,148,1730344923,588203355,RL_myo,-0.0006103754392737,0.0535299260243118,0.8606904069199789,0.5063064268776133,9.5,4.125,3.1875,0.0595703125,0.89306640625,-0.49658203125
1969/12/31/18:00:19.471000,149,1730344923,611393776,RL_myo,-0.0006103840283667,0.0537137944962711,0.8621064016651525,0.5038720154167257,13.625,0.375,2.8125,0.01806640625,0.884765625,-0.54052734375
1969/12/31/18:00:19.500000,150,1730344923,639851537,RL_myo,0.0001831095745745,0.0546887262729329,0.8628733519201491,0.5024526726325718,9.125,-5.5,5.6875,0.0029296875,0.92626953125,-0.5263671875
1969/12/31/18:00:19.508000,151,1730344923,648194048,RL_myo,0.0001220787696331,0.0559120764919864,0.8624254680734453,0.5030866096582445,-5.5625,-4.5625,3.5,0.1005859375,0.88671875,-0.5234375
1969/12/31/18:00:19.537000,152,1730344923,677378988,RL_myo,-0.0020752460509774,0.0574965229417871,0.8616543676955517,0.5042237537389639,-7.5625,3.3125,8.4375,0.1572265625,0.85546875,-0.4921875
1969/12/31/18:00:19.554000,153,1730344923,693898392,RL_myo,-0.0056154530057379,0.0585349938315511,0.8618499613154348,0.5037427571342977,0.5625,12.5625,11.5625,0.1201171875,0.7685546875,-0.494140625
1969/12/31/18:00:19.577000,154,1730344923,716431602,RL_myo,-0.0075686488205572,0.0588401408307837,0.8644739777867124,0.4991645972138483,20.1875,11.375,12.5625,-0.02685546875,0.841796875,-0.66015625
1969/12/31/18:00:19.592000,155,1730344923,731406771,RL_myo,-0.0037843165149835,0.0589620927979693,0.8643500994948699,0.4994077052515377,16.375,-17.1875,-4.5,0.021484375,1.5166015625,-0.56884765625
1969/12/31/18:00:19.614000,156,1730344923,753906493,RL_myo,-0.0003662281663643,0.0576198981746649,0.865641309229977,0.4973378499228496,3.75,-12.875,-16.375,0.046875,0.85107421875,-0.646484375
1969/12/31/18:00:19.635000,157,1730344923,775033432,RL_myo,-0.0036623048319634,0.0617708748324505,0.8639377098601834,0.499782532735282,-8.375,0.875,23.875,0.1865234375,0.9423828125,-0.4228515625
1969/12/31/18:00:19.651000,158,1730344923,791149157,RL_myo,-0.0055546630657143,0.0622610585387766,0.8633533450710363,0.500713199209397,-2.875,6.25,5.0,0.125,0.921875,-0.48681640625
1969/12/31/18:00:19.674000,159,1730344923,813785300,RL_myo,-0.0049442217073607,0.0617722514549271,0.8637128044340114,0.5001599095075823,5.5,-1.6875,-4.25,0.0634765625,0.814453125,-0.439453125
1969/12/31/18:00:19.695000,160,1730344923,834864101,RL_myo,-0.0048220261888257,0.062869455373298,0.8642413773111913,0.4991102296965613,7.25,-5.25,3.375,0.09375,0.85546875,-0.49072265625
1969/12/31/18:00:19.711000,161,1730344923,851361622,RL_myo,-0.004699828898844,0.0638444289375441,0.8622660110905217,0.5023933982647473,-19.375,-7.5625,-3.5625,0.21875,0.8984375,-0.46484375
1969/12/31/18:00:19.740000,162,1730344923,879885376,RL_myo,-0.0054323218793621,0.063967116062601,0.8589172301840853,0.5080746890315752,-50.4375,1.5,-5.1875,0.21435546875,0.81982421875,-0.66796875
1969/12/31/18:00:19.757000,163,1730344923,896954649,RL_myo,-0.0061039042892073,0.0633585265219727,0.8540582881458978,0.516268224781161,-70.75,2.375,-12.9375,0.29833984375,0.91845703125,-0.75048828125
1969/12/31/18:00:19.771000,164,1730344923,911134629,RL_myo,-0.0036011524645609,0.0570691110909231,0.8446228441456629,0.5322991634480653,-110.3125,10.3125,-40.375,0.39306640625,1.0458984375,-0.71533203125
1969/12/31/18:00:19.808000,165,1730344923,948055196,RL_myo,0.001037606440375,0.0451053623198336,0.828498224803006,0.5581712292488205,-178.4375,19.75,-74.4375,0.51806640625,1.2353515625,-0.66845703125
1969/12/31/18:00:19.815000,166,1730344923,954843775,RL_myo,0.0035401913767671,0.0264293597610378,0.8042338203497322,0.5937145089968007,-249.3125,53.125,-101.4375,0.7138671875,1.23974609375,-0.4990234375
1969/12/31/18:00:19.832000,167,1730344923,971760245,RL_myo,-6.103849994095678,0.0018921934981696,0.7748227182505054,0.6321757438884894,-280.4375,102.25,-107.0625,0.67578125,1.021484375,-0.337890625
1969/12/31/18:00:19.854000,168,1730344923,993624193,RL_myo,-0.008239917932233,-0.0261846280957629,0.7467807103768282,0.6645036039127526,-250.25,137.4375,-104.0,0.5205078125,0.76953125,-0.36181640625
1969/12/31/18:00:19.882000,169,1730344924,22426566,RL_myo,-0.0172129947681266,-0.0579260001239437,0.7259366906997506,0.6851016073668545,-171.0625,156.125,-115.125,0.5078125,0.6953125,-0.2373046875
1969/12/31/18:00:19.898000,170,1730344924,37826369,RL_myo,-0.0233767166080014,-0.0948496543311599,0.7138138400276158,0.6934889140995102,-81.8125,168.5,-145.0,0.5478515625,0.68505859375,-0.0576171875
1969/12/31/18:00:19.914000,171,1730344924,53962476,RL_myo,-0.025879761899575,-0.1355635641013119,0.706810478294999,0.69380956017092,-23.875,172.9375,-169.0625,0.41552734375,0.552734375,0.07421875
1969/12/31/18:00:19.935000,172,1730344924,75263701,RL_myo,-0.0258806386066144,-0.1776852334524871,0.6995097132825498,0.6916966903069682,-12.9375,170.0625,-180.75,0.1787109375,0.47705078125,0.06005859375
1969/12/31/18:00:19.951000,173,1730344924,90654555,RL_myo,-0.022828087227183,-0.216439564993559,0.6924723251133467,0.6878334624682507,-3.0625,146.375,-176.875,0.00439453125,0.525390625,0.0166015625
1969/12/31/18:00:19.974000,174,1730344924,113915407,RL_myo,-0.0173344253039409,-0.252081607412944,0.6854422400114676,0.6828786982411664,4.4375,126.125,-172.5625,-0.08837890625,0.50927734375,0.02294921875
1969/12/31/18:00:20.002000,175,1730344924,142316338,RL_myo,-0.0098878898598404,-0.284551497077631,0.6773204553990717,0.6783580734707834,0.5,105.375,-168.25,-0.1669921875,0.466796875,-0.0029296875
1969/12/31/18:00:20.011000,176,1730344924,150652194,RL_myo,-0.0016479859869859,-0.3111641689501593,0.6667018865128659,0.6772612041331831,-21.25,74.375,-152.5,-0.232421875,0.4521484375,0.02490234375
1969/12/31/18:00:20.034000,177,1730344924,173716611,RL_myo,0.0075686127561221,-0.3313709568789271,0.6543798174063322,0.6796492180598367,-38.75,39.875,-133.75,-0.32666015625,0.46728515625,0.04296875
1969/12/31/18:00:20.057000,178,1730344924,196437031,RL_myo,0.0175782094417345,-0.3436295804061302,0.6428863890617709,0.6843294592386381,-41.875,2.0625,-103.75,-0.4521484375,0.42724609375,0.11328125
1969/12/31/18:00:20.071000,179,1730344924,210596520,RL_myo,0.0267954819837771,-0.3479140029784275,0.6299684955684826,0.6938137669922431,-56.1875,-29.6875,-65.75,-0.4873046875,0.513671875,0.169921875
1969/12/31/18:00:20.094000,180,1730344924,233747794,RL_myo,0.0299694541660074,-0.3413832121191033,0.6133666902529715,0.7115761642918839,-119.8125,-73.5,-14.1875,-0.67822265625,0.5546875,0.22802734375
1969/12/31/18:00:20.117000,181,1730344924,257042697,RL_myo,0.0275880795749202,-0.3217185120340805,0.5952799559606123,0.7357838479550068,-158.375,-121.6875,51.625,-0.6533203125,0.63330078125,0.193359375
1969/12/31/18:00:20.131000,182,1730344924,270561269,RL_myo,0.0205085644842934,-0.289256211580555,0.5758878152062749,0.764371288800019,-185.9375,-168.1875,113.875,-0.634765625,0.64892578125,0.236328125
1969/12/31/18:00:20.154000,183,1730344924,293833363,RL_myo,0.0136114185945279,-0.2478132712725713,0.545067121296567,0.8008153002699843,-259.9375,-224.0,127.25,-0.70556640625,0.55517578125,0.3515625
1969/12/31/18:00:20.176000,184,1730344924,316429804,RL_myo,0.0106202352653009,-0.1995261441509709,0.5142269086790853,0.834054683335276,-244.625,-265.3125,133.5,-0.904296875,0.6083984375,0.43701171875
1969/12/31/18:00:20.191000,185,1730344924,330671888,RL_myo,0.014160652449096,-0.1467336572742534,0.4925709709663996,0.8576960698909353,-161.9375,-296.4375,127.75,-0.94970703125,0.44775390625,0.578125
1969/12/31/18:00:20.220000,186,1730344924,359994215,RL_myo,0.0203250650989991,-0.0867935212335637,0.4741294465135889,0.8759309586658747,-129.0,-335.5,136.25,-0.88134765625,0.56396484375,0.6337890625
1969/12/31/18:00:20.236000,187,1730344924,376343917,RL_myo,0.0221568191713991,-0.021973704963371,0.4540621978403263,0.8904233555712704,-133.5625,-345.5,165.625,-0.53369140625,0.86181640625,0.53759765625
1969/12/31/18:00:20.257000,188,1730344924,397402789,RL_myo,0.0199590682507738,0.0408947269969983,0.4308595192116589,0.9012709534890716,-139.875,-324.375,179.3125,-0.34814453125,0.9541015625,0.71923828125
1969/12/31/18:00:20.274000,189,1730344924,413919601,RL_myo,0.0161137502586952,0.0990019049984989,0.4055904184432955,0.9085347446995417,-142.0625,-298.3125,177.375,-0.310546875,1.0029296875,0.83642578125
1969/12/31/18:00:20.297000,190,1730344924,436720545,RL_myo,0.0109865084754189,0.1527735039665205,0.3786072892945772,0.9127957458327264,-145.375,-275.625,176.0625,-0.3251953125,0.99072265625,0.76318359375
1969/12/31/18:00:20.318000,191,1730344924,457488456,RL_myo,0.0046389619969197,0.1995974438148344,0.3580546193938284,0.9121053831575142,-99.625,-239.0625,159.5,-0.044921875,0.955078125,0.81103515625
1969/12/31/18:00:20.334000,192,1730344924,474382506,RL_myo,-0.0034791113132257,0.236457495218182,0.3482773535660677,0.907071460102582,-29.5,-184.3125,130.75,0.40771484375,0.8154296875,0.90576171875
1969/12/31/18:00:20.356000,193,1730344924,496242177,RL_myo,-0.0159309830468958,0.2627696628999487,0.34517129934941,0.9008635202648884,12.0625,-123.9375,125.3125,0.36328125,0.90185546875,0.88330078125
1969/12/31/18:00:20.377000,194,1730344924,517457049,RL_myo,-0.0323506869473093,0.2839535767526093,0.3413302668101012,0.8954425990887313,11.5625,-90.9375,140.9375,0.1640625,1.06494140625,0.86767578125
1969/12/31/18:00:20.394000,195,1730344924,533992307,RL_myo,-0.0477313530383506,0.3020747649447535,0.331067594475721,0.8926739618745243,-32.9375,-68.8125,141.75,0.2568359375,1.28076171875,0.60205078125
