time,.header.seq,.header.stamp.secs,.header.stamp.nsecs,.header.frame_id,.orientation.x,.orientation.y,.orientation.z,.orientation.w,.angular_velocity.x,.angular_velocity.y,.angular_velocity.z,.linear_acceleration.x,.linear_acceleration.y,.linear_acceleration.z
1969/12/31/18:00:03.705,1,1731185265,763526863,RU_myo,0.6270376398669276,0.5030705955206091,-0.5642301122291326,0.1881173957042607,-2.3125,5.125,-7.9375,0.9482421875,0.42529296875,-0.10888671875
1969/12/31/18:00:03.725,2,1731185265,781602751,RU_myo,0.6281250895174403,0.504953732929529,-0.5611682123237145,0.1886023250032932,10.25,10.125,-14.1875,0.9462890625,0.4482421875,-0.08935546875
1969/12/31/18:00:03.746,3,1731185265,801088177,RU_myo,0.6291686505433173,0.5081324229504381,-0.5565957435297352,0.1901300297286023,20.5,15.9375,-19.125,0.9658203125,0.466796875,-0.0712890625
1969/12/31/18:00:03.772,4,1731185265,823595403,RU_myo,0.6311186357310625,0.5125244859026821,-0.5498178598322448,0.191593945605397,24.0625,27.25,-27.75,0.97705078125,0.52099609375,-0.09716796875
1969/12/31/18:00:03.792,5,1731185265,841604766,RU_myo,0.633000904168877,0.5196576702433534,-0.5410811894182909,0.1910416382266497,28.0,29.8125,-46.1875,0.92578125,0.57177734375,-0.15673828125
1969/12/31/18:00:03.822,6,1731185265,868546632,RU_myo,0.6338053862376718,0.5285170299915255,-0.5319961235022677,0.1895800779713221,34.5,23.25,-57.0,0.9736328125,0.5791015625,-0.173828125
1969/12/31/18:00:03.839,7,1731185265,883580077,RU_myo,0.6343521242927999,0.5394403997401871,-0.5210684196177843,0.1873209534739346,43.4375,23.8125,-67.8125,0.9775390625,0.67822265625,-0.16455078125
1969/12/31/18:00:03.859,8,1731185265,901554941,RU_myo,0.6353416374656728,0.5528796764496171,-0.5070403480091598,0.1832352383199106,48.375,31.125,-84.4375,0.93115234375,0.8173828125,-0.21142578125
1969/12/31/18:00:03.881,9,1731185265,921042678,RU_myo,0.636055149473302,0.5667183631954331,-0.4923766328376477,0.1784079456780022,49.5625,26.6875,-100.6875,0.87646484375,0.86181640625,-0.1904296875
1969/12/31/18:00:03.906,10,1731185265,943600730,RU_myo,0.6373881682977989,0.580381508411737,-0.4766830981907315,0.1722406790133475,45.25,25.5,-111.6875,1.0029296875,0.853515625,-0.06884765625
1969/12/31/18:00:03.927,11,1731185265,961639041,RU_myo,0.6409339447215437,0.5932652073796215,-0.4581936123249813,0.1652231395449213,36.125,39.0,-125.4375,1.06201171875,0.85498046875,-0.009765625
1969/12/31/18:00:03.948,12,1731185265,981095100,RU_myo,0.6461901065412293,0.6048686082765262,-0.4381177467415645,0.156924035507462,23.8125,45.9375,-134.8125,1.00634765625,0.8271484375,0.01904296875
1969/12/31/18:00:03.994,13,1731185266,22065580,RU_myo,0.6531143267135533,0.6152703189974408,-0.4161620074329912,0.1472864364822246,12.125,53.4375,-144.6875,0.97265625,0.86474609375,0.0537109375
1969/12/31/18:00:04.002,14,1731185266,29038733,RU_myo,0.6621086325698097,0.6235954921612966,-0.3932490707639458,0.1345213335346479,-9.6875,53.0,-155.8125,0.9091796875,0.9765625,0.0537109375
1969/12/31/18:00:04.015,15,1731185266,40978446,RU_myo,0.6765302932712951,0.6266633454543835,-0.3686003645854702,0.1171903792025339,-58.625,60.375,-172.5,0.86376953125,0.97705078125,0.0322265625
1969/12/31/18:00:04.041,16,1731185266,63591391,RU_myo,0.6950118150632378,0.6253092162398236,-0.3410666569397886,0.0980841298679743,-92.3125,77.0625,-184.8125,0.82861328125,0.900390625,0.07861328125
1969/12/31/18:00:04.061,17,1731185266,81603623,RU_myo,0.713212967382519,0.6224515054657193,-0.312324411989418,0.0795917594751223,-96.375,85.5,-186.5,0.82666015625,0.74072265625,0.03955078125
1969/12/31/18:00:04.083,18,1731185266,101061791,RU_myo,0.7299529536503568,0.618497640215659,-0.2840096239932361,0.0629911738579453,-91.5,87.6875,-174.875,0.794921875,0.75732421875,0.16015625
1969/12/31/18:00:04.108,19,1731185266,123690920,RU_myo,0.7496157951099348,0.6093489522500187,-0.2538597908852877,0.0482205421494054,-119.3125,108.75,-166.125,0.67724609375,0.7275390625,0.23681640625
1969/12/31/18:00:04.136,20,1731185266,149120186,RU_myo,0.7725929359959679,0.5936965941248838,-0.2222928956310092,0.0347904861366488,-156.75,126.375,-155.125,0.50830078125,0.63671875,0.24951171875
1969/12/31/18:00:04.150,21,1731185266,161137116,RU_myo,0.7975766906112626,0.5717990692313697,-0.1906810730442782,0.0236215029667527,-189.25,138.75,-137.0625,0.44189453125,0.7431640625,0.2783203125
1969/12/31/18:00:04.176,22,1731185266,183758539,RU_myo,0.8245514808694,0.5424375609213382,-0.1601005651284651,0.0156255221779973,-226.75,147.875,-111.5625,0.40380859375,0.642578125,0.33056640625
1969/12/31/18:00:04.196,23,1731185266,201649876,RU_myo,0.8499644683984546,0.5103449134850614,-0.1302566732899319,0.0119025544946282,-230.25,156.9375,-86.875,0.38427734375,0.56884765625,0.37109375
1969/12/31/18:00:04.221,24,1731185266,224069626,RU_myo,0.8721733042775749,0.4787217597766827,-0.0999803955774839,0.0119634661374767,-216.5625,168.0625,-69.75,0.3515625,0.5576171875,0.408203125
1969/12/31/18:00:04.243,25,1731185266,243632658,RU_myo,0.8904901763252258,0.4493041461327018,-0.0696448893815259,0.0173959627289525,-189.75,181.125,-43.5,0.30322265625,0.47607421875,0.5341796875
1969/12/31/18:00:04.263,26,1731185266,261639991,RU_myo,0.9025175197352904,0.4276978399016083,-0.0416893998362777,0.0282608962286919,-131.0,179.8125,-12.6875,0.30810546875,0.40673828125,0.58251953125
1969/12/31/18:00:04.288,27,1731185266,284052776,RU_myo,0.9072384997735268,0.4178521777078555,-0.0159914213496141,0.045410753756156,-50.1875,180.125,23.5625,0.2763671875,0.34130859375,0.61767578125
1969/12/31/18:00:04.310,28,1731185266,303588194,RU_myo,0.905298704626214,0.4195673742988534,0.0100100450080029,0.065553587430458,25.5,185.5,39.375,0.2763671875,0.3828125,0.572265625
1969/12/31/18:00:04.347,29,1731185266,337293732,RU_myo,0.8972361666698397,0.4315889071103698,0.0368049937756403,0.0856952093880581,93.0625,186.0625,40.5625,0.2431640625,0.38134765625,0.51171875
1969/12/31/18:00:04.354,30,1731185266,342596734,RU_myo,0.8838621704334843,0.4517585582443519,0.0601246020633274,0.1052943538672486,146.0,163.3125,51.6875,0.1640625,0.533203125,0.5126953125
1969/12/31/18:00:04.378,31,1731185266,363525976,RU_myo,0.8657624547234264,0.4776830915584839,0.0824622868253912,0.1243953668024776,182.5625,154.25,56.8125,0.091796875,0.9580078125,0.41845703125
1969/12/31/18:00:04.398,32,1731185266,381599389,RU_myo,0.8489677446075111,0.4989188542973468,0.1038244398286991,0.1398364442372426,153.0625,141.4375,39.6875,0.00341796875,1.06787109375,0.1884765625
1969/12/31/18:00:04.421,33,1731185266,402610000,RU_myo,0.8401353984169034,0.5056438274110453,0.1244577214016322,0.151680940501744,60.5625,133.25,10.25,-0.0888671875,1.00439453125,0.064453125
1969/12/31/18:00:04.448,34,1731185266,426587413,RU_myo,0.8383024349315351,0.5010038143234338,0.1419144576391305,0.1615688470411951,-13.375,117.3125,-4.0625,-0.12109375,0.8974609375,0.18359375
1969/12/31/18:00:04.465,35,1731185266,441517694,RU_myo,0.8361791852876371,0.4974713745597666,0.1545518429920649,0.1715818446487735,-19.5,92.6875,12.25,-0.09814453125,0.8154296875,0.22216796875
1969/12/31/18:00:04.489,36,1731185266,462662375,RU_myo,0.8338249735862671,0.494887115572612,0.1623581311572703,0.1829275635632854,-24.375,72.375,32.3125,-0.07666015625,0.74072265625,0.12109375
1969/12/31/18:00:04.512,37,1731185266,483562973,RU_myo,0.8301811317836684,0.494898067531945,0.1687707396060468,0.1933691512014309,-3.1875,63.8125,33.25,-0.0322265625,0.6953125,0.18701171875
1969/12/31/18:00:04.532,38,1731185266,501563591,RU_myo,0.8223113896388498,0.5021641777433801,0.1760351876275566,0.2016103414472328,46.75,57.0625,33.1875,-0.05078125,0.75341796875,0.2021484375
1969/12/31/18:00:04.556,39,1731185266,522559523,RU_myo,0.8116190805660987,0.5143651945499371,0.1830522390477348,0.2078335691755709,78.125,45.8125,35.25,-0.10205078125,0.869140625,0.19677734375
1969/12/31/18:00:04.580,40,1731185266,543547319,RU_myo,0.7989965957406898,0.5303652727571317,0.1878160828948894,0.2122315632842153,112.5625,29.5,38.0,-0.06884765625,0.9345703125,0.35400390625
1969/12/31/18:00:04.600,41,1731185266,561514412,RU_myo,0.7868211794803909,0.5458491822273784,0.1912883078497824,0.215336678396309,106.8125,19.75,34.0625,0.00146484375,1.03466796875,0.26220703125
1969/12/31/18:00:04.625,42,1731185266,584790262,RU_myo,0.7789735640708424,0.5547790882181387,0.1936752169563378,0.218884124804736,50.6875,19.5625,24.75,-0.021484375,1.1181640625,0.1689453125
1969/12/31/18:00:04.647,43,1731185266,603458656,RU_myo,0.776473426459154,0.5569171875649179,0.1945914066151861,0.2215094776055553,5.375,12.25,13.25,-0.05517578125,1.1806640625,0.2216796875
1969/12/31/18:00:04.667,44,1731185266,621478171,RU_myo,0.7775771452656854,0.554845454938777,0.1942874678845024,0.2230979249506303,-17.875,5.4375,3.3125,-0.04736328125,1.103515625,0.3154296875
1969/12/31/18:00:04.692,45,1731185266,643293101,RU_myo,0.7805658336733565,0.5505101074366595,0.1929440569472536,0.2245622225589833,-29.0625,1.875,-1.4375,-0.00048828125,0.92626953125,0.3623046875
1969/12/31/18:00:04.714,46,1731185266,664175934,RU_myo,0.7831095952569661,0.5465287073991328,0.1919625625162243,0.2262655705079948,-28.5,4.8125,-1.5625,0.01953125,0.873046875,0.30712890625
1969/12/31/18:00:04.733,47,1731185266,680782193,RU_myo,0.7832279189846914,0.5455494965621237,0.1923889027929977,0.2278514511821892,-5.0,8.8125,2.875,-0.021484375,0.84130859375,0.3125
1969/12/31/18:00:04.759,48,1731185266,703817774,RU_myo,0.7807839745794533,0.5482334005372616,0.1932428129704932,0.22907147096597,21.375,7.5625,7.25,-0.0234375,0.9228515625,0.34716796875
1969/12/31/18:00:04.781,49,1731185266,724154449,RU_myo,0.7766342569788675,0.5531779527663845,0.1947078968691125,0.2300482957052304,40.8125,8.75,7.6875,-0.00439453125,0.9248046875,0.375
1969/12/31/18:00:04.800,50,1731185266,740640736,RU_myo,0.7723095093000096,0.5579452481238748,0.1968464528169233,0.2312716929374643,38.6875,13.1875,6.1875,0.00634765625,0.92724609375,0.32958984375
1969/12/31/18:00:04.825,51,1731185266,763202989,RU_myo,0.7683792297954065,0.562184040865562,0.1989923966581685,0.2322595304553163,32.875,11.9375,6.75,-0.03759765625,1.013671875,0.30224609375
1969/12/31/18:00:04.849,52,1731185266,783968972,RU_myo,0.7657580656364218,0.5651166338510955,0.2002141454991999,0.2327489441428199,20.0625,5.4375,6.4375,-0.06494140625,0.96142578125,0.24560546875
1969/12/31/18:00:04.868,53,1731185266,800729896,RU_myo,0.7644290339955876,0.5666076910396869,0.2003849024758474,0.233344953446593,7.6875,1.875,5.9375,-0.0439453125,0.83154296875,0.20068359375
1969/12/31/18:00:04.892,54,1731185266,823134817,RU_myo,0.761459929479155,0.5712017651355457,0.1985594509495544,0.2334126469201033,25.3125,-9.375,10.9375,0.03271484375,0.90673828125,0.22802734375
1969/12/31/18:00:04.916,55,1731185266,843952608,RU_myo,0.7574750184990962,0.576865141002011,0.1960523577291778,0.2345670021025001,36.1875,-7.375,15.0,0.1201171875,1.06396484375,0.3291015625
1969/12/31/18:00:04.935,56,1731185266,860593044,RU_myo,0.7554377178316002,0.5790305584478475,0.1957570104303443,0.2360437665525855,17.125,4.4375,7.3125,0.0478515625,1.138671875,0.341796875
1969/12/31/18:00:04.960,57,1731185266,883258642,RU_myo,0.756147098045721,0.576937550107213,0.1987419237356205,0.2364027858194282,-8.5,14.5,-6.125,-0.11279296875,1.02294921875,0.25732421875
1969/12/31/18:00:04.984,58,1731185266,904292777,RU_myo,0.7566154580853003,0.5761288567979308,0.2007509068766176,0.2351758115523283,-3.5,4.125,-9.6875,-0.08837890625,0.8974609375,0.201171875
1969/12/31/18:00:05.002,59,1731185266,920677244,RU_myo,0.7556608213582195,0.5777936457978115,0.2006957011814076,0.234206023550201,12.625,-3.8125,-3.6875,0.01171875,0.87939453125,0.2451171875
1969/12/31/18:00:05.027,60,1731185266,943251759,RU_myo,0.7545018058728439,0.579320171469878,0.2009400489388724,0.2339620922183165,11.625,0.0625,-0.6875,0.00146484375,0.89990234375,0.24169921875
1969/12/31/18:00:05.044,61,1731185266,957625708,RU_myo,0.752489554874045,0.5815801816060919,0.2025886463844058,0.2334133726345188,17.0625,3.625,0.4375,-0.078125,0.91357421875,0.19189453125
1969/12/31/18:00:05.078,62,1731185266,988020313,RU_myo,0.7492730742022083,0.5858064108446919,0.2034482408404041,0.2324425145875364,27.5,-1.8125,3.1875,-0.0419921875,0.93505859375,0.17041015625
1969/12/31/18:00:05.094,63,1731185267,3222354,RU_myo,0.7460729218338141,0.589814500832868,0.2045398315524103,0.2316409014447618,29.0625,0.75,-0.3125,-0.0048828125,1.00048828125,0.20849609375
1969/12/31/18:00:05.118,64,1731185267,24020011,RU_myo,0.7439262755052061,0.591881612534787,0.2074057666694035,0.2307221300795601,19.9375,7.8125,-3.875,-0.10205078125,0.9912109375,0.19677734375
1969/12/31/18:00:05.137,65,1731185267,40723890,RU_myo,0.7406575510769607,0.5955658254374407,0.210221246572363,0.2292046402088336,36.4375,4.5625,0.0,-0.14208984375,0.90087890625,0.2509765625
1969/12/31/18:00:05.171,66,1731185267,70694024,RU_myo,0.7352154989919847,0.6028217740178365,0.2116834662103946,0.226393880096411,50.6875,-7.6875,4.75,-0.12060546875,0.96044921875,0.1201171875
1969/12/31/18:00:05.185,67,1731185267,84130330,RU_myo,0.7317131983380566,0.6077467730940966,0.2138741280427553,0.2224803643595442,33.3125,-8.0,-6.25,-0.16015625,1.15234375,0.09814453125
1969/12/31/18:00:05.204,68,1731185267,100624811,RU_myo,0.7304473328259794,0.609774283858238,0.217907326664055,0.2171138265949702,26.0,-4.5625,-21.6875,-0.2119140625,1.09423828125,0.19677734375
1969/12/31/18:00:05.229,69,1731185267,123250539,RU_myo,0.7283047591656896,0.6133092708763702,0.2209573607257623,0.2111912895334634,35.375,-10.25,-24.9375,-0.1103515625,0.8828125,0.1640625
1969/12/31/18:00:05.253,70,1731185267,144210115,RU_myo,0.7269651731143468,0.6160587315065578,0.2226674182637395,0.2059429466068687,27.1875,-12.4375,-24.125,-0.052734375,1.02783203125,0.1826171875
1969/12/31/18:00:05.272,71,1731185267,160616483,RU_myo,0.7283478851526298,0.6150032088157126,0.2254075873517692,0.2011761191203442,-1.125,-6.75,-29.625,-0.142578125,1.2294921875,0.15966796875
1969/12/31/18:00:05.296,72,1731185267,183259897,RU_myo,0.7330819477981678,0.6096604908083347,0.2292635966636068,0.1958140623261051,-22.8125,-2.6875,-44.625,-0.16552734375,1.13916015625,0.24560546875
1969/12/31/18:00:05.322,73,1731185267,205592742,RU_myo,0.7401289376541456,0.6010266905063807,0.2328543540450738,0.1917157342216453,-44.8125,2.125,-50.75,-0.09619140625,1.033203125,0.2734375
1969/12/31/18:00:05.339,74,1731185267,220574704,RU_myo,0.7488212058536099,0.5891443005297557,0.2368906993738066,0.1898909986477486,-66.5,13.4375,-49.375,-0.1103515625,1.0634765625,0.31494140625
1969/12/31/18:00:05.364,75,1731185267,243087725,RU_myo,0.7578811353697855,0.5751253267923743,0.2431250452784999,0.1890429990528532,-77.3125,27.8125,-54.5,-0.14697265625,1.00927734375,0.3095703125
1969/12/31/18:00:05.387,76,1731185267,264043706,RU_myo,0.7655437781515664,0.5614923628780305,0.2516003391437376,0.188059351019373,-67.0,37.9375,-54.8125,-0.224609375,0.84619140625,0.31591796875
1969/12/31/18:00:05.405,77,1731185267,279936318,RU_myo,0.7708973185273994,0.550187524085984,0.2599565858755498,0.1882381100822248,-47.4375,41.875,-42.0625,-0.24169921875,0.72119140625,0.36181640625
1969/12/31/18:00:05.431,78,1731185267,303090971,RU_myo,0.7735397584032309,0.5420210727231666,0.267287193407066,0.1908060668167363,-24.8125,48.1875,-24.5625,-0.19384765625,0.72216796875,0.4375
1969/12/31/18:00:05.455,79,1731185267,324189698,RU_myo,0.7728137341119996,0.5376918240101576,0.2757127902206699,0.1939816797257669,2.1875,55.5625,-15.75,-0.1953125,0.6669921875,0.419921875
1969/12/31/18:00:05.472,80,1731185267,339999227,RU_myo,0.77030608449952,0.5350636399938821,0.2847446817900365,0.1981310261715881,3.6875,59.9375,-8.5,-0.23291015625,0.82470703125,0.29296875
1969/12/31/18:00:05.498,81,1731185267,363197333,RU_myo,0.7678554737081928,0.5318833543635288,0.2935307609747773,0.203316898483465,-7.375,60.6875,-3.75,-0.28759765625,0.9794921875,0.23828125
1969/12/31/18:00:05.522,82,1731185267,384161698,RU_myo,0.7674904421506129,0.5260855830202109,0.3014051060394247,0.2082002463953985,-18.9375,56.875,-6.875,-0.28076171875,0.7783203125,0.29345703125
1969/12/31/18:00:05.540,83,1731185267,399859234,RU_myo,0.76645509527483,0.521387228146659,0.3073877406867917,0.2149760966439397,-18.3125,54.4375,7.1875,-0.19091796875,0.57421875,0.22216796875
1969/12/31/18:00:05.566,84,1731185267,423098107,RU_myo,0.7631675649389204,0.519989161458423,0.3112366163019719,0.2243174279093443,-13.125,51.875,27.4375,-0.15087890625,0.8017578125,0.1513671875
1969/12/31/18:00:05.589,85,1731185267,444153085,RU_myo,0.7593015599411492,0.5192426342780833,0.3155007848340675,0.2330396588308125,-5.125,53.25,23.875,-0.17529296875,1.01611328125,0.2333984375
1969/12/31/18:00:05.607,86,1731185267,459920844,RU_myo,0.755849605294314,0.518284664342568,0.3208835803143187,0.2389688447651812,2.0,48.5625,11.6875,-0.18505859375,0.78662109375,0.20751953125
1969/12/31/18:00:05.633,87,1731185267,483102030,RU_myo,0.7510215772252075,0.5204779737483213,0.3246044170744191,0.2443383756203271,10.75,35.5,24.3125,-0.20458984375,0.73779296875,0.07177734375
1969/12/31/18:00:05.659,88,1731185267,505751868,RU_myo,0.7458464928004316,0.5245158288431221,0.3250984876548898,0.2508129338666808,17.5625,26.4375,32.9375,-0.08935546875,0.89404296875,0.16357421875
1969/12/31/18:00:05.690,89,1731185267,534082497,RU_myo,0.7396007372382913,0.5292628532304386,0.326859944533387,0.2569711235267151,29.375,32.5,30.6875,-0.0771484375,0.89404296875,0.20166015625
1969/12/31/18:00:05.700,90,1731185267,543020908,RU_myo,0.7336114772053361,0.533346957968236,0.3285656528659892,0.2634384837023239,20.75,32.625,32.125,-0.083984375,0.85595703125,0.11962890625
1969/12/31/18:00:05.726,91,1731185267,565649161,RU_myo,0.7277650973663993,0.5376904086807524,0.3291820154404924,0.2699744213412383,17.9375,27.125,36.5625,-0.09130859375,0.92529296875,0.0966796875
1969/12/31/18:00:05.760,92,1731185267,595425758,RU_myo,0.7228165280624804,0.5414714930283959,0.3285696141327759,0.2763817969149562,14.375,21.75,35.375,-0.07421875,1.0498046875,0.16552734375
1969/12/31/18:00:05.776,93,1731185267,610790650,RU_myo,0.7194093424486182,0.5437381997736545,0.3278421498635269,0.2816353899590976,7.625,16.8125,28.75,-0.10009765625,1.01123046875,0.18310546875
1969/12/31/18:00:05.793,94,1731185267,626181680,RU_myo,0.7165111540349027,0.5465846651659046,0.3258145106259741,0.2858353977634764,2.5625,4.875,29.75,-0.0947265625,0.9384765625,0.08203125
1969/12/31/18:00:05.817,95,1731185267,646561634,RU_myo,0.7142680742232259,0.5489768466555882,0.3220981565267444,0.291029753708455,-6.0,1.875,32.375,-0.0126953125,0.9736328125,0.08740234375
1969/12/31/18:00:05.835,96,1731185267,662886350,RU_myo,0.7125224207959748,0.5505827324235152,0.3186909585347198,0.2959839988383176,-4.6875,3.625,28.25,-0.0078125,1.0,0.16796875
1969/12/31/18:00:05.861,97,1731185267,685613832,RU_myo,0.7107814377133623,0.5522671059193218,0.3152585767101345,0.300670619336713,-6.5,1.6875,29.5625,-0.0283203125,1.0078125,0.13037109375
1969/12/31/18:00:05.884,98,1731185267,706891628,RU_myo,0.7099112688265958,0.5530349179337023,0.3113720879006419,0.3053289911152736,-11.875,0.375,27.5625,-0.015625,1.0546875,0.173828125
1969/12/31/18:00:05.902,99,1731185267,723235746,RU_myo,0.7088421637058253,0.5539259997959498,0.3083063608781644,0.3092829797207799,-5.375,1.8125,22.25,0.00439453125,1.02392578125,0.20458984375
1969/12/31/18:00:05.928,100,1731185267,745537471,RU_myo,0.7076889914853615,0.5552739999605256,0.3055624539741003,0.3122157315376594,-6.1875,-2.0,19.5625,-0.015625,1.03759765625,0.13427734375
1969/12/31/18:00:05.951,101,1731185267,766831200,RU_myo,0.707373578728389,0.5559374022830414,0.3024450843557828,0.3147748335061094,-10.0,-4.625,19.1875,-0.03759765625,0.9873046875,0.1455078125
1969/12/31/18:00:05.978,102,1731185267,790553457,RU_myo,0.7068734365976707,0.5570878038016527,0.2994491909116805,0.3167227581819629,-7.4375,-6.8125,17.625,-0.0361328125,1.0361328125,0.14404296875
1969/12/31/18:00:06.003,103,1731185267,813023415,RU_myo,0.7073944866703583,0.5570525571967978,0.2968993686396257,0.3180192661620991,-13.0,-7.0,9.3125,-0.02978515625,1.06689453125,0.15771484375
1969/12/31/18:00:06.019,104,1731185267,826565840,RU_myo,0.7088501157327011,0.5561906703312126,0.2945149236554105,0.3185033930847528,-15.75,-8.4375,2.0,-0.01220703125,1.0048828125,0.18310546875
1969/12/31/18:00:06.037,105,1731185267,843225301,RU_myo,0.7090868269745373,0.5569783331447579,0.2922533982572165,0.3186831646409623,1.3125,-9.5625,5.5,-0.00830078125,0.85302734375,0.2265625
1969/12/31/18:00:06.063,106,1731185267,865618913,RU_myo,0.707445568579314,0.5597304455454969,0.2903639835834164,0.3192355758127534,12.9375,-7.625,12.875,-0.00830078125,0.97509765625,0.216796875
1969/12/31/18:00:06.078,107,1731185267,879959222,RU_myo,0.7065167660764399,0.5612459321013274,0.289504019136117,0.3194127202486401,7.1875,-4.125,7.625,-0.05810546875,1.08935546875,0.22705078125
1969/12/31/18:00:06.104,108,1731185267,903181866,RU_myo,0.7070020567396491,0.5614266526712676,0.2887092919259725,0.3187399413186953,-3.6875,-6.75,0.625,-0.06787109375,0.97802734375,0.16796875
1969/12/31/18:00:06.130,109,1731185267,925626498,RU_myo,0.70762737090016,0.561743698300196,0.2868842097154103,0.3184414727841054,-1.9375,-10.0625,4.125,-0.0439453125,0.84765625,0.20166015625
1969/12/31/18:00:06.146,110,1731185267,939940248,RU_myo,0.706863820578844,0.5632449129005762,0.2852236105314686,0.3189768004788048,11.6875,-6.125,10.25,-0.02978515625,0.94189453125,0.2958984375
1969/12/31/18:00:06.171,111,1731185267,963234240,RU_myo,0.7053577701798741,0.5644815384755517,0.2860861776421833,0.3193520122517395,18.4375,5.5625,2.375,-0.0322265625,1.11474609375,0.3349609375
1969/12/31/18:00:06.197,112,1731185267,985805947,RU_myo,0.7054756504630136,0.5631963857780089,0.2879156119773348,0.3197163399485435,-0.875,10.625,-4.8125,-0.08056640625,1.11083984375,0.2568359375
1969/12/31/18:00:06.221,113,1731185268,6652408,RU_myo,0.7072072556071818,0.5604065090393178,0.2889624674645605,0.3198486120647016,-19.375,6.375,-9.5625,-0.07275390625,1.06787109375,0.1640625
1969/12/31/18:00:06.239,114,1731185268,22480609,RU_myo,0.7104796344469636,0.5562982292396585,0.2889527997828114,0.319776873270416,-26.375,1.625,-13.5,-0.044921875,0.9150390625,0.20947265625
1969/12/31/18:00:06.264,115,1731185268,45575996,RU_myo,0.712916262091762,0.5536087754428323,0.2873028121289318,0.3205071311852604,-15.1875,-1.875,-4.8125,0.01416015625,0.82080078125,0.30126953125
1969/12/31/18:00:06.288,116,1731185268,66760947,RU_myo,0.7132368554913681,0.5537428115547874,0.2854168195359552,0.3212465186522096,2.6875,-4.875,4.6875,0.0068359375,0.90673828125,0.32373046875
1969/12/31/18:00:06.322,117,1731185268,96735785,RU_myo,0.7129350793470796,0.5539896215885355,0.2843805252292846,0.3224077987252803,-3.5625,-0.0625,6.4375,-0.0126953125,1.056640625,0.21728515625
1969/12/31/18:00:06.332,118,1731185268,105738729,RU_myo,0.7132343841963834,0.5527642775594735,0.2845612921800205,0.323686943893318,-14.625,5.375,4.6875,-0.087890625,0.96826171875,0.12841796875
1969/12/31/18:00:06.355,119,1731185268,126597244,RU_myo,0.7139744986999658,0.5518546159482253,0.2837708339280277,0.3243008046159629,-11.0,-1.1875,4.3125,-0.072265625,0.861328125,0.1640625
1969/12/31/18:00:06.373,120,1731185268,143048808,RU_myo,0.7139063923921355,0.5516660374863305,0.2829134856991748,0.325518364451715,-0.5625,1.125,5.625,-0.01806640625,0.91064453125,0.2724609375
1969/12/31/18:00:06.399,121,1731185268,165592870,RU_myo,0.7134829187869093,0.5510585842080774,0.2834033015593823,0.3270460671452014,-1.9375,9.25,2.4375,-0.0166015625,1.00927734375,0.251953125
1969/12/31/18:00:06.423,122,1731185268,186826108,RU_myo,0.7136179845865703,0.5494205353916448,0.2847513384737277,0.3283338584459124,-6.9375,12.6875,-2.5625,-0.03662109375,0.99560546875,0.2353515625
1969/12/31/18:00:06.441,123,1731185268,203069808,RU_myo,0.7139161434212075,0.5478280939813044,0.2856641203155994,0.3295514071760515,-8.5,9.375,0.25,-0.06640625,0.904296875,0.2099609375
1969/12/31/18:00:06.466,124,1731185268,225772123,RU_myo,0.7136034251627917,0.5473340102159571,0.2858442254757808,0.3308907850318616,-5.5625,6.375,4.6875,-0.04052734375,0.87109375,0.17626953125
1969/12/31/18:00:06.490,125,1731185268,246640422,RU_myo,0.7131901655559854,0.5469785239256406,0.2854225619770444,0.3327284827495443,-4.3125,6.1875,6.0625,0.001953125,0.91943359375,0.22265625
1969/12/31/18:00:06.508,126,1731185268,263013120,RU_myo,0.7128769221557274,0.5463619599465636,0.2847479100827526,0.3349831791069982,-6.5,6.375,9.3125,-0.01318359375,0.91552734375,0.22314453125
1969/12/31/18:00:06.534,127,1731185268,285706428,RU_myo,0.7133941078848177,0.5446893410989145,0.2832091598721384,0.3378978252267583,-21.6875,5.25,11.3125,-0.0126953125,0.94921875,0.1630859375
1969/12/31/18:00:06.557,128,1731185268,306809437,RU_myo,0.71547911514017,0.5414618009220652,0.280832571980884,0.3406491163280403,-36.4375,1.9375,7.6875,-0.01025390625,1.02783203125,0.15869140625
1969/12/31/18:00:06.574,129,1731185268,322491037,RU_myo,0.7198804217986364,0.5362785641786348,0.277050808423267,0.3426664988958406,-52.375,-6.1875,1.5,-0.0068359375,0.9892578125,0.17724609375
1969/12/31/18:00:06.601,130,1731185268,345787748,RU_myo,0.7264841590862348,0.5302443194406083,0.2702799408867289,0.3435265373329969,-70.5625,-23.0625,-1.5625,0.01708984375,0.96240234375,0.1376953125
1969/12/31/18:00:06.626,131,1731185268,368124311,RU_myo,0.7347806382807976,0.5230993578722741,0.2607561793267625,0.3441957151740669,-89.0,-34.0,-4.375,0.1044921875,0.9921875,0.1181640625
1969/12/31/18:00:06.642,132,1731185268,382456357,RU_myo,0.7466239897138083,0.5121137404920578,0.2503192431177508,0.3429758173807953,-106.5,-42.875,-16.625,0.14501953125,1.134765625,0.05517578125
1969/12/31/18:00:06.676,133,1731185268,413131211,RU_myo,0.7617686545125745,0.4981405440286154,0.2371981563650532,0.3395608193151804,-133.8125,-59.9375,-27.8125,0.076171875,1.23193359375,-0.02197265625
1969/12/31/18:00:06.692,134,1731185268,426681611,RU_myo,0.7809903782717247,0.4794591185091362,0.2193731472847658,0.3347363215664039,-173.25,-81.1875,-33.8125,0.01708984375,1.07470703125,-0.02734375
1969/12/31/18:00:06.709,135,1731185268,442410162,RU_myo,0.8016487778178069,0.4586866579336697,0.1990388811073449,0.3276420465453013,-184.875,-96.5,-42.6875,0.04443359375,0.75830078125,0.1044921875
1969/12/31/18:00:06.736,136,1731185268,465719373,RU_myo,0.8196013626280687,0.4426994848928643,0.1792038725555562,0.3164755038149043,-146.875,-110.125,-52.875,0.1064453125,0.556640625,0.22998046875
1969/12/31/18:00:06.760,137,1731185268,488284543,RU_myo,0.8325671352659006,0.4363042436129514,0.160531639717692,0.3011646807479438,-81.875,-126.5,-57.375,0.17822265625,0.54248046875,0.32275390625
1969/12/31/18:00:06.777,138,1731185268,502516392,RU_myo,0.840068289482624,0.4399631061971048,0.1434396919482791,0.2830950175557952,-14.6875,-137.625,-56.0625,0.23779296875,0.6240234375,0.3857421875
1969/12/31/18:00:06.803,139,1731185268,525793818,RU_myo,0.8436998806470666,0.4495297418046477,0.1269547675429283,0.2645297896783901,24.9375,-142.875,-48.8125,0.21240234375,0.63134765625,0.40283203125
1969/12/31/18:00:06.828,140,1731185268,548231007,RU_myo,0.8445730341517547,0.4630289106797146,0.1084632710622004,0.2460413312615251,48.125,-156.875,-35.25,0.16259765625,0.5693359375,0.3310546875
1969/12/31/18:00:06.851,141,1731185268,569236756,RU_myo,0.8433461568232161,0.4786509779118232,0.086245069088167,0.2285219665011305,57.875,-174.0,-16.0625,0.17041015625,0.576171875,0.33203125
1969/12/31/18:00:06.870,142,1731185268,586064876,RU_myo,0.8408498281484983,0.4944631575080563,0.0612204106876411,0.2114942403117412,58.6875,-185.1875,-6.3125,0.32421875,0.73291015625,0.40283203125
1969/12/31/18:00:06.895,143,1731185268,608208346,RU_myo,0.8396838644873654,0.5064837324646477,0.0350351485218977,0.1928153905586674,35.125,-191.0,-14.5,0.42236328125,0.8056640625,0.38037109375
1969/12/31/18:00:06.920,144,1731185268,629225893,RU_myo,0.8407319021471881,0.512532727045879,0.0052492335984215,0.1745064983475251,-3.625,-200.9375,-5.3125,0.40576171875,0.74169921875,0.35986328125
1969/12/31/18:00:06.938,145,1731185268,645603621,RU_myo,0.8420113876322423,0.5146065972546164,-0.0308849410758908,0.1588804379852647,-29.0,-220.25,25.6875,0.44091796875,0.72314453125,0.43505859375
1969/12/31/18:00:06.962,146,1731185268,668185478,RU_myo,0.8427509451976783,0.5132681030033517,-0.0719027025018371,0.1454534295941238,-48.8125,-234.0625,51.4375,0.515625,0.7197265625,0.36962890625
1969/12/31/18:00:06.986,147,1731185268,689155378,RU_myo,0.8442040709891424,0.5069741171018594,-0.1146276657738131,0.1309856074284361,-75.6875,-240.9375,52.3125,0.58544921875,0.623046875,0.36572265625
1969/12/31/18:00:07.005,148,1731185268,705658547,RU_myo,0.8443564306879101,0.4981416056418734,-0.1602891626535424,0.1149980131147273,-86.5625,-258.625,56.1875,0.5576171875,0.44384765625,0.34521484375
1969/12/31/18:00:07.036,149,1731185268,734020748,RU_myo,0.8393213456669455,0.4909825397821911,-0.209906632808423,0.1020540535201172,-62.1875,-275.3125,82.5625,0.7001953125,0.365234375,0.3955078125
1969/12/31/18:00:07.036,1,1731185276,325585947,RU_myo,0.6882540029464966,0.4391006826176921,-0.5739315705663274,0.064027886581312,-0.6875,48.5625,-79.1875,1.02734375,0.6865234375,0.18994140625
1969/12/31/18:00:07.061,2,1731185276,348053386,RU_myo,0.6972725085216325,0.4461713968218779,-0.5579889069419437,0.058228113894401,0.5625,62.375,-88.25,1.02685546875,0.71826171875,0.19091796875
1969/12/31/18:00:07.087,3,1731185276,370476536,RU_myo,0.7058176094129083,0.4556930363089565,-0.5398003232140921,0.052734902674918,6.8125,79.625,-100.875,1.0771484375,0.83349609375,0.23388671875
1969/12/31/18:00:07.111,4,1731185276,393160647,RU_myo,0.7164447603383169,0.4659515505556919,-0.51716105421252,0.0462655587269078,2.625,101.625,-119.75,1.07275390625,0.90771484375,0.23095703125
1969/12/31/18:00:07.137,5,1731185276,415727674,RU_myo,0.7301360729682882,0.4739597564453066,-0.4908062333002846,0.0370500414890278,-22.0625,119.6875,-135.4375,1.0244140625,0.8828125,0.27294921875
1969/12/31/18:00:07.154,6,1731185276,430687569,RU_myo,0.7460770385114789,0.480131063153996,-0.46059865275363,0.0263077152579929,-39.8125,139.375,-150.125,1.07763671875,0.88427734375,0.27734375
1969/12/31/18:00:07.171,7,1731185276,445591133,RU_myo,0.763757518847296,0.4837802361051441,-0.4270767489310741,0.0153813549707918,-55.0625,158.125,-154.5,1.04150390625,0.861328125,0.3671875
1969/12/31/18:00:07.196,8,1731185276,468074137,RU_myo,0.7846190477860994,0.4820631069167338,-0.3898375618988578,0.0038452742131874,-87.9375,181.4375,-156.4375,0.982421875,0.75537109375,0.42138671875
1969/12/31/18:00:07.219,9,1731185276,489111597,RU_myo,0.8092959024645917,0.4723690315388397,-0.3490733287725319,-0.007446572147272,-133.4375,207.875,-148.4375,0.888671875,0.60791015625,0.4814453125
1969/12/31/18:00:07.238,10,1731185276,505641164,RU_myo,0.8337176162406461,0.459432791378823,-0.3059222997729056,-0.0157477959579827,-142.1875,227.375,-134.9375,0.822265625,0.5673828125,0.48583984375
1969/12/31/18:00:07.265,11,1731185276,529459608,RU_myo,0.8575809954913141,0.4420967366792589,-0.2619742087294462,-0.0217904921986049,-157.8125,236.5625,-118.375,0.75634765625,0.5400390625,0.5419921875
1969/12/31/18:00:07.289,12,1731185276,550696161,RU_myo,0.8794949820701958,0.4220770213765982,-0.2184546145346124,-0.0248424219378561,-162.875,239.625,-98.375,0.69189453125,0.55322265625,0.52001953125
1969/12/31/18:00:07.305,13,1731185276,565593087,RU_myo,0.8997171247200808,0.3999895738324755,-0.1730460005821865,-0.023927348228648,-164.75,257.75,-80.75,0.65869140625,0.50146484375,0.51708984375
1969/12/31/18:00:07.330,14,1731185276,588097771,RU_myo,0.9160782385116454,0.3796393259739113,-0.1278688726552,-0.018005402116126,-140.8125,264.625,-56.125,0.56494140625,0.38916015625,0.572265625
1969/12/31/18:00:07.355,15,1731185276,609182471,RU_myo,0.9270747807509144,0.3649338412080924,-0.0855113416177517,-0.0065918807242806,-94.6875,258.0625,-25.1875,0.47021484375,0.3544921875,0.61376953125
1969/12/31/18:00:07.373,16,1731185276,625532615,RU_myo,0.931584889001172,0.3600109864584531,-0.0497471946360866,0.0081792933512093,-23.9375,228.0625,0.625,0.49462890625,0.2041015625,0.728515625
1969/12/31/18:00:07.397,17,1731185276,648076504,RU_myo,0.9287212614701974,0.3693888718728729,-0.0163576037114887,0.0275881973044511,66.5625,222.125,27.1875,0.423828125,0.27490234375,0.60595703125
1969/12/31/18:00:07.422,18,1731185276,669212416,RU_myo,0.9200621232303764,0.3881912633504839,0.0181888359242836,0.0496225624377269,127.125,231.625,38.8125,0.3984375,0.287109375,0.40625
1969/12/31/18:00:07.449,19,1731185276,693260318,RU_myo,0.9060189045528922,0.4135191375872975,0.0528572063690922,0.0730601339766782,175.625,233.5,48.6875,0.32568359375,0.25048828125,0.47802734375
1969/12/31/18:00:07.466,20,1731185276,708293102,RU_myo,0.886752694851605,0.444475022295525,0.0838655150554863,0.0952795262020481,212.5625,209.875,55.3125,0.26123046875,0.5390625,0.3720703125
1969/12/31/18:00:07.488,21,1731185276,729216820,RU_myo,0.8658210846803691,0.4734091175735596,0.1144458606821073,0.1146289740591986,199.625,200.5,42.8125,0.14208984375,0.8994140625,0.01318359375
1969/12/31/18:00:07.507,22,1731185276,745692622,RU_myo,0.8511745197221549,0.4876933963843683,0.1447210316429709,0.1292784247236661,111.6875,190.1875,7.8125,-0.02685546875,1.07080078125,-0.01025390625
1969/12/31/18:00:07.533,23,1731185276,768587586,RU_myo,0.8419071867723583,0.4915448832797652,0.1715188280164088,0.1419760832619811,48.875,170.4375,-3.0625,-0.1201171875,0.91259765625,0.12255859375
1969/12/31/18:00:07.556,24,1731185276,789120029,RU_myo,0.8335370767593109,0.4939207692689179,0.1936130351113454,0.1541823854638268,35.4375,146.0,6.0,-0.16064453125,0.71044921875,0.00244140625
1969/12/31/18:00:07.574,25,1731185276,804953974,RU_myo,0.8268884385514075,0.4939234697540406,0.2103386402338636,0.1674896195013702,13.625,123.4375,23.25,-0.18798828125,0.63818359375,-0.03955078125
1969/12/31/18:00:07.600,26,1731185276,828349074,RU_myo,0.8160859132798509,0.5017371882692876,0.2226077281773834,0.1808573344089901,61.6875,101.0625,48.1875,-0.08203125,0.52099609375,0.1162109375
1969/12/31/18:00:07.623,27,1731185276,849085162,RU_myo,0.7980111641021582,0.5225465485603928,0.2315172361511003,0.1911100623224611,143.75,73.3125,65.4375,0.04638671875,0.43310546875,0.06591796875
1969/12/31/18:00:07.641,28,1731185276,864839241,RU_myo,0.7784247452432068,0.5454405648469612,0.2389049206368628,0.1986805101361748,156.5625,57.0625,62.0,-0.0009765625,0.83740234375,-0.04150390625
1969/12/31/18:00:07.667,29,1731185276,888224868,RU_myo,0.7597300423932095,0.5663031520305454,0.2456136973238752,0.2044135865650244,146.5625,48.9375,54.75,-0.1728515625,1.1376953125,0.0029296875
1969/12/31/18:00:07.699,30,1731185276,916598723,RU_myo,0.7458301615870807,0.5813312430604269,0.2489152466611109,0.2093622599430139,103.0625,31.5,48.8125,-0.20458984375,1.20263671875,-0.017578125
1969/12/31/18:00:07.708,31,1731185276,924965200,RU_myo,0.7391559027274903,0.5879066602040617,0.2493354139258297,0.2141171681889377,26.125,17.125,36.1875,-0.14501953125,1.20703125,-0.03173828125
1969/12/31/18:00:07.734,32,1731185276,948212724,RU_myo,0.73977607558301,0.586205398506537,0.2466530628243352,0.2196744303649548,-31.0,8.25,25.3125,-0.06396484375,1.1171875,0.06884765625
1969/12/31/18:00:07.760,33,1731185276,970570317,RU_myo,0.7435750260496312,0.5810286219804991,0.2422020771108961,0.2254774377136215,-52.5,2.5,20.625,-0.0048828125,1.0185546875,0.15966796875
1969/12/31/18:00:07.777,34,1731185276,985585978,RU_myo,0.7471597067309282,0.5768041196476817,0.2376188823056534,0.2293177859805651,-42.625,-5.125,15.75,-0.0068359375,0.95947265625,0.19677734375
1969/12/31/18:00:07.801,35,1731185277,8216070,RU_myo,0.747898941205011,0.5770535044603097,0.2332873380629684,0.2307237409413973,-12.75,-14.4375,14.125,-0.00390625,0.94775390625,0.1630859375
1969/12/31/18:00:07.827,36,1731185277,30591370,RU_myo,0.7465083331368377,0.5802377935240213,0.2296291373066871,0.2309109586473146,6.75,-16.8125,14.0,-0.0029296875,1.0009765625,0.13720703125
1969/12/31/18:00:07.843,37,1731185277,44855961,RU_myo,0.7435109109995806,0.5853599570220817,0.2262700063275137,0.2309699767853552,25.6875,-15.875,16.625,0.009765625,1.04052734375,0.20068359375
1969/12/31/18:00:07.869,38,1731185277,68220105,RU_myo,0.7406548246182201,0.5899479874678669,0.2239543886207556,0.2307297871317679,26.125,-11.625,10.0,0.0283203125,1.0322265625,0.2138671875
1969/12/31/18:00:07.894,39,1731185277,90646015,RU_myo,0.7394746879393288,0.5924953195069801,0.2216898115225457,0.2301740856970044,14.1875,-12.0625,4.5625,0.021484375,1.03515625,0.232421875
1969/12/31/18:00:07.918,40,1731185277,111653500,RU_myo,0.7391845485935787,0.5940333630811485,0.2186423660662426,0.230056693942956,3.625,-14.25,7.25,0.013671875,1.10205078125,0.22509765625
1969/12/31/18:00:07.936,41,1731185277,128082500,RU_myo,0.7408868704862236,0.5926240423093381,0.2165040146329407,0.2302377060037926,-13.6875,-8.1875,1.625,-0.02099609375,1.0947265625,0.24658203125
1969/12/31/18:00:07.962,42,1731185277,150544831,RU_myo,0.7424693603510618,0.5907892912559953,0.2167468512501332,0.2296259235153481,-12.3125,-0.6875,-6.6875,-0.0634765625,0.96435546875,0.20458984375
1969/12/31/18:00:07.977,43,1731185277,165028602,RU_myo,0.7427901764864582,0.5904965212696193,0.2177280433500859,0.2284099630546739,-0.5,0.125,-10.5625,-0.033203125,0.88916015625,0.1728515625
1969/12/31/18:00:08.003,44,1731185277,188082708,RU_myo,0.7408860396274803,0.5929285705174941,0.2188842756717864,0.2271855198132708,20.1875,0.5625,-6.3125,-0.00634765625,0.85791015625,0.18115234375
1969/12/31/18:00:08.029,45,1731185277,210520032,RU_myo,0.737332712039193,0.5971296292946544,0.2202842514693251,0.2263879990855436,31.8125,2.5625,0.125,-0.02783203125,0.92236328125,0.16650390625
1969/12/31/18:00:08.053,46,1731185277,231749703,RU_myo,0.7335416575055699,0.6015188080144276,0.2216860792195231,0.2257145156811114,31.5,2.375,3.75,-0.06982421875,0.95068359375,0.13427734375
1969/12/31/18:00:08.071,47,1731185277,248162608,RU_myo,0.7305235681052435,0.6050869093104344,0.2226119195253863,0.2250535089909787,23.5,0.25,3.25,-0.060546875,0.9541015625,0.107421875
1969/12/31/18:00:08.096,48,1731185277,270605054,RU_myo,0.7288539391015569,0.6073274176417798,0.2224832600305816,0.2245585496989053,12.8125,-2.75,1.0625,-0.0185546875,0.96240234375,0.11572265625
1969/12/31/18:00:08.120,49,1731185277,291707642,RU_myo,0.7285088510062548,0.6081385574005292,0.2215741205825475,0.2243819469039792,3.625,-4.4375,1.25,-0.009765625,0.95458984375,0.15869140625
1969/12/31/18:00:08.138,50,1731185277,308019555,RU_myo,0.7288519989278348,0.6084855185756289,0.2195528548817872,0.2243138008592071,-7.1875,-9.5,4.5,-0.0166015625,0.9951171875,0.09716796875
1969/12/31/18:00:08.164,51,1731185277,330626782,RU_myo,0.7300265694823801,0.6079485478298082,0.2169936834874466,0.2244404428082534,-15.625,-11.3125,6.0625,-0.03076171875,1.01806640625,0.08447265625
1969/12/31/18:00:08.187,52,1731185277,351744686,RU_myo,0.7311752560324152,0.6073289755006704,0.2148540697248603,0.224437049539293,-7.0625,-9.0,3.1875,-0.01123046875,0.951171875,0.19970703125
1969/12/31/18:00:08.205,53,1731185277,368129020,RU_myo,0.7308138331832593,0.6081264695569041,0.2136957512715769,0.2245606023787865,8.125,-4.1875,1.5,0.02783203125,0.92333984375,0.2314453125
1969/12/31/18:00:08.231,54,1731185277,390567965,RU_myo,0.7290526086223102,0.6099040242258978,0.2140645929703987,0.2251126942899431,15.4375,3.875,2.75,0.00244140625,0.94140625,0.19091796875
1969/12/31/18:00:08.257,55,1731185277,413270218,RU_myo,0.726961997503335,0.6117833837931088,0.2149146257942269,0.2259624949418426,15.75,6.75,5.1875,-0.02734375,0.9482421875,0.15673828125
1969/12/31/18:00:08.279,56,1731185277,434025794,RU_myo,0.7237239271170911,0.614893720315221,0.2162565466623812,0.2266329544898169,24.4375,7.6875,6.625,-0.0439453125,0.93603515625,0.134765625
1969/12/31/18:00:08.298,57,1731185277,450615627,RU_myo,0.7201221344522185,0.6183723804149369,0.2178433546245099,0.2271210766483052,25.1875,8.0625,6.75,-0.05078125,0.9814453125,0.087890625
1969/12/31/18:00:08.324,58,1731185277,473252359,RU_myo,0.7170256969612485,0.621133352539173,0.2196795337842456,0.2276146100254104,22.375,9.3125,3.0,-0.03466796875,1.07763671875,0.1201171875
1969/12/31/18:00:08.346,59,1731185277,494082655,RU_myo,0.7131600554694875,0.6245338657620503,0.2223589594381498,0.2278523183043133,37.3125,12.75,-0.1875,-0.0185546875,0.9892578125,0.21337890625
1969/12/31/18:00:08.366,60,1731185277,510441502,RU_myo,0.7080574587607528,0.6293776256277691,0.2256627952619398,0.2271887811644415,43.0,10.9375,1.0625,-0.07177734375,0.9580078125,0.0966796875
1969/12/31/18:00:08.394,61,1731185277,535957547,RU_myo,0.703737634167935,0.6338460918726548,0.2289634717463721,0.2248737483107531,35.5,3.6875,-0.5625,-0.17529296875,1.0703125,0.02099609375
1969/12/31/18:00:08.407,62,1731185277,548159552,RU_myo,0.7001681577572331,0.6379703238495859,0.2320668935396216,0.2211410718816542,32.4375,-2.75,-9.75,-0.14111328125,1.03369140625,-0.0048828125
1969/12/31/18:00:08.433,63,1731185277,570554185,RU_myo,0.6970086612083172,0.6418901025717368,0.2350626459684061,0.2165677143328758,30.1875,-5.875,-17.0625,-0.09619140625,1.07373046875,-0.02734375
1969/12/31/18:00:08.456,64,1731185277,591558542,RU_myo,0.6960677903990594,0.6438199801060399,0.2376176699424358,0.2110054675034679,16.125,-11.9375,-24.4375,-0.1201171875,1.1904296875,-0.0126953125
1969/12/31/18:00:08.474,65,1731185277,607432519,RU_myo,0.6982691032054348,0.6426028949778686,0.2403046730174647,0.2042925426948068,-4.25,-16.1875,-36.125,-0.16064453125,1.2490234375,0.02294921875
1969/12/31/18:00:08.500,66,1731185277,630605654,RU_myo,0.7026731941939105,0.6391933364835503,0.2428104557421278,0.1967875589021167,-12.3125,-19.3125,-46.625,-0.13427734375,1.10498046875,0.1337890625
1969/12/31/18:00:08.533,67,1731185277,659275803,RU_myo,0.7092101291348496,0.6329115955761473,0.2450708897905517,0.1907463338967557,-31.375,-14.25,-51.4375,-0.0830078125,1.13818359375,0.18896484375
1969/12/31/18:00:08.542,68,1731185277,668221888,RU_myo,0.7165923817685903,0.6246683505127558,0.2489761776178943,0.1851909102458179,-41.0625,-4.8125,-58.6875,-0.12158203125,1.17919921875,0.21826171875
1969/12/31/18:00:08.567,69,1731185277,690678074,RU_myo,0.7251805010073648,0.6140931757120695,0.2546463302922924,0.1793266822624053,-52.375,2.625,-69.4375,-0.15673828125,1.11376953125,0.236328125
1969/12/31/18:00:08.592,70,1731185277,712326556,RU_myo,0.733520857127317,0.6028336510767565,0.2617406536874374,0.1732933105920323,-48.9375,9.3125,-73.75,-0.17626953125,0.87646484375,0.2861328125
1969/12/31/18:00:08.609,71,1731185277,727371898,RU_myo,0.7403418064866978,0.5923833153560395,0.2692429473503853,0.1687727838185934,-44.6875,17.3125,-64.75,-0.19287109375,0.744140625,0.24267578125
1969/12/31/18:00:08.636,72,1731185277,752118156,RU_myo,0.7452841341128141,0.5833481138178677,0.2767500625771907,0.1663308161717787,-42.375,24.4375,-51.25,-0.2490234375,0.869140625,0.177734375
1969/12/31/18:00:08.658,73,1731185277,771734965,RU_myo,0.7500620309843391,0.5735948002245959,0.2848746336754484,0.165052712547335,-39.375,33.0625,-47.5,-0.28662109375,0.84716796875,0.28369140625
1969/12/31/18:00:08.676,74,1731185277,787478213,RU_myo,0.7538757063227515,0.5643538807108867,0.2932857881046734,0.1648015874885781,-36.75,38.125,-39.1875,-0.3154296875,0.693359375,0.248046875
1969/12/31/18:00:08.702,75,1731185277,810609662,RU_myo,0.7572499161162619,0.5557601552666906,0.2995184054798079,0.1673079171428884,-40.375,37.5,-18.9375,-0.3388671875,0.759765625,0.25439453125
1969/12/31/18:00:08.726,76,1731185277,831544350,RU_myo,0.7610358911833321,0.5462391875360635,0.3050735790932222,0.171397881171222,-47.5625,40.75,-15.125,-0.30712890625,0.794921875,0.2939453125
1969/12/31/18:00:08.744,77,1731185277,847583669,RU_myo,0.7638869696603156,0.5371929061111017,0.3111702573973862,0.1762769131745098,-41.25,47.9375,-13.5,-0.2548828125,0.67578125,0.31640625
1969/12/31/18:00:08.776,78,1731185277,876759988,RU_myo,0.7643275362343568,0.531098378276245,0.3167302016866377,0.1828111300927886,-28.0,50.9375,3.75,-0.26416015625,0.66357421875,0.26025390625
1969/12/31/18:00:08.793,79,1731185277,891562625,RU_myo,0.7633399466103972,0.5268791315481328,0.3209372652548751,0.1915979603718244,-22.625,52.25,19.9375,-0.27294921875,0.8349609375,0.283203125
1969/12/31/18:00:08.811,80,1731185277,907550859,RU_myo,0.7613702875752218,0.5240600680712566,0.3256301494479564,0.1991013209932959,-14.5625,50.75,12.3125,-0.228515625,0.89208984375,0.23583984375
1969/12/31/18:00:08.837,81,1731185277,930681137,RU_myo,0.7597738155527864,0.520860445738887,0.3303523652102257,0.2057072192827902,-13.375,48.75,7.8125,-0.20068359375,0.7783203125,0.2451171875
1969/12/31/18:00:08.863,82,1731185277,953275413,RU_myo,0.7559723345213114,0.5214591565454634,0.3333969229838839,0.2131494059062107,9.875,43.25,31.125,-0.212890625,0.59033203125,0.248046875
1969/12/31/18:00:08.878,83,1731185277,967480543,RU_myo,0.7489239634077415,0.5265661803030632,0.3355814140844143,0.2218694871220163,25.375,42.25,46.625,-0.17724609375,0.759765625,0.123046875
1969/12/31/18:00:08.904,84,1731185277,990701547,RU_myo,0.7416209766716074,0.5315255526630747,0.3385820212014326,0.2298719833864422,21.4375,44.3125,34.0,-0.1318359375,1.052734375,0.07177734375
1969/12/31/18:00:08.929,85,1731185278,13030383,RU_myo,0.7354104310140401,0.5348938916812777,0.3420073576503707,0.2368353645695946,22.5,44.25,26.375,-0.1357421875,0.92626953125,0.1650390625
1969/12/31/18:00:08.952,86,1731185278,34160073,RU_myo,0.7284075023621619,0.5409039120105145,0.3432682917114797,0.2429245734373558,38.3125,30.5,39.75,-0.12158203125,0.6865234375,0.15771484375
1969/12/31/18:00:08.971,87,1731185278,50757721,RU_myo,0.7210889916124303,0.5480496068806511,0.3424775970828971,0.2497626674858697,28.6875,21.5625,47.3125,-0.0947265625,0.92578125,0.0205078125
1969/12/31/18:00:09.005,88,1731185278,80463757,RU_myo,0.7156150160416528,0.5525812640928934,0.3413881597339614,0.2569109179903887,6.375,21.625,36.0,-0.08056640625,1.3193359375,0.01171875
1969/12/31/18:00:09.020,89,1731185278,94174241,RU_myo,0.7139149039065291,0.5527102817094409,0.3404158190053619,0.2625907931434583,-6.875,18.8125,18.5625,-0.0546875,1.04541015625,0.1640625
1969/12/31/18:00:09.039,90,1731185278,110553502,RU_myo,0.711173049487169,0.555277764242106,0.3374882662959881,0.2683303343528962,6.0625,9.0625,35.0625,-0.033203125,0.69677734375,0.15087890625
1969/12/31/18:00:09.064,91,1731185278,133286063,RU_myo,0.7070675663310665,0.560087360898987,0.3330859555825819,0.2746112725244706,9.4375,3.0,46.75,-0.0390625,0.96533203125,0.08837890625
1969/12/31/18:00:09.087,92,1731185278,154256591,RU_myo,0.7037210408025842,0.5635750168904727,0.3301610815943427,0.2795595773159715,1.3125,5.125,31.5,-0.05078125,1.25927734375,0.0537109375
1969/12/31/18:00:09.106,93,1731185278,170666784,RU_myo,0.7012642402174617,0.5658211773710393,0.3286890010941797,0.2829105886855196,3.625,6.25,19.0625,-0.02783203125,0.93017578125,0.06591796875
1969/12/31/18:00:09.132,94,1731185278,193315807,RU_myo,0.697669239443425,0.5704651541415792,0.3257620936928748,0.2858429613572668,17.5625,-2.75,30.6875,-0.03173828125,0.80322265625,0.07275390625
1969/12/31/18:00:09.154,95,1731185278,214239710,RU_myo,0.6936578001557487,0.5756676094041593,0.3223518868904003,0.2890240833982286,17.6875,-4.1875,34.9375,-0.0556640625,1.1044921875,0.0810546875
1969/12/31/18:00:09.174,96,1731185278,232159706,RU_myo,0.6920142237877699,0.5778077659323481,0.3204006933635004,0.2908571735334501,-0.3125,-2.5,15.9375,-0.0703125,1.2587890625,0.0537109375
1969/12/31/18:00:09.198,97,1731185278,253210463,RU_myo,0.6923546296735972,0.577786205103612,0.3183744819163786,0.292311233492626,-7.8125,-3.1875,7.375,-0.03173828125,0.9228515625,0.11669921875
1969/12/31/18:00:09.221,98,1731185278,274312481,RU_myo,0.6911876217027986,0.580099536971335,0.3148309566180709,0.2943223871291853,3.125,-8.4375,19.25,0.01318359375,0.85791015625,0.10791015625
1969/12/31/18:00:09.241,99,1731185278,290564107,RU_myo,0.6900501875040754,0.5821936035748669,0.3115449939868023,0.2963461884415998,-3.9375,-7.9375,21.0,-0.05224609375,1.19287109375,0.05224609375
1969/12/31/18:00:09.265,100,1731185278,313229338,RU_myo,0.691862768127331,0.5804688950058156,0.3095223729310715,0.297620013885211,-22.875,-4.625,7.1875,-0.12158203125,1.185546875,0.10498046875
1969/12/31/18:00:09.291,101,1731185278,335658662,RU_myo,0.6936788102947831,0.5790524305557948,0.3081728388190374,0.297552503316064,-8.625,-6.125,-1.6875,-0.06640625,0.8212890625,0.18798828125
1969/12/31/18:00:09.316,102,1731185278,358128894,RU_myo,0.6919408266507509,0.5818870766109393,0.3067832211314991,0.2975052566245377,19.875,-6.375,8.8125,-0.01416015625,0.82763671875,0.18701171875
1969/12/31/18:00:09.333,103,1731185278,373157093,RU_myo,0.6893040932792485,0.5849898547762612,0.3062895545980048,0.2980494011761773,22.1875,-0.625,12.75,-0.06787109375,1.08349609375,0.18212890625
1969/12/31/18:00:09.357,104,1731185278,394370272,RU_myo,0.6882857654534641,0.585738755346882,0.306664392128255,0.2985460871614839,5.6875,3.5625,5.25,-0.099609375,1.0693359375,0.13037109375
1969/12/31/18:00:09.375,105,1731185278,410688146,RU_myo,0.6878618000592661,0.5860467780964606,0.3067879498711395,0.2987916861558353,4.25,1.5,2.6875,-0.07861328125,0.873046875,0.13623046875
1969/12/31/18:00:09.400,106,1731185278,433202365,RU_myo,0.6866580753847841,0.5871079135223323,0.3064020923050325,0.2998712110547061,9.1875,2.75,8.3125,-0.04443359375,0.91455078125,0.16455078125
1969/12/31/18:00:09.423,107,1731185278,454321816,RU_myo,0.6849383573448948,0.5883718765214724,0.3066077327282245,0.3011140644133648,11.5625,5.875,9.8125,-0.0751953125,1.0302734375,0.1630859375
1969/12/31/18:00:09.442,108,1731185278,470667432,RU_myo,0.6838842890457686,0.5888461028583122,0.3075159807401448,0.3016562081813806,3.1875,5.6875,4.625,-0.109375,0.9921875,0.07568359375
1969/12/31/18:00:09.467,109,1731185278,493110075,RU_myo,0.6833303501289452,0.5892083849749628,0.3076359950558181,0.3020814562561991,-3.5,2.0,3.9375,-0.07958984375,0.94970703125,0.02294921875
1969/12/31/18:00:09.474,110,1731185278,498633991,RU_myo,0.681789446950829,0.5909045332077865,0.3075682205179254,0.3023189911143649,12.25,0.3125,4.375,-0.02685546875,0.9765625,0.1220703125
1969/12/31/18:00:09.502,111,1731185278,523798240,RU_myo,0.678999952439981,0.5939113212190772,0.3077595972853635,0.3025102269230983,29.0625,2.0,6.625,-0.00146484375,0.8935546875,0.2080078125
1969/12/31/18:00:09.518,112,1731185278,537718757,RU_myo,0.6750946842858212,0.5978799667793507,0.3080653590949855,0.3031211756024763,27.4375,3.75,11.625,-0.001953125,0.9833984375,0.08203125
1969/12/31/18:00:09.541,113,1731185278,558412355,RU_myo,0.6731345159554561,0.5993997956730667,0.3092219312504843,0.3033011797046301,8.9375,5.75,1.125,-0.05029296875,1.3681640625,0.04833984375
1969/12/31/18:00:09.566,114,1731185278,581220263,RU_myo,0.674907326831519,0.5969606273322109,0.3098945915097786,0.3034855050200156,-13.875,3.875,-6.8125,-0.09765625,1.1640625,0.12646484375
1969/12/31/18:00:09.583,115,1731185278,595949047,RU_myo,0.6773999446493463,0.5954258839479522,0.3083640764433679,0.3025044265347054,-19.875,-10.625,-10.0625,0.017578125,0.8369140625,0.02099609375
1969/12/31/18:00:09.609,116,1731185278,618519608,RU_myo,0.6783045713489497,0.5956604257891119,0.3059176200486759,0.3024995460816516,-4.25,-10.875,1.8125,0.03125,0.8056640625,0.11376953125
1969/12/31/18:00:09.637,117,1731185278,643980195,RU_myo,0.6767223721512086,0.5978619676396759,0.304821099172286,0.3028068628341432,17.0625,-3.8125,9.4375,-0.0224609375,0.9814453125,0.1748046875
1969/12/31/18:00:09.650,118,1731185278,655987695,RU_myo,0.6744452748998363,0.6002801007661318,0.3061831386458122,0.3017271240682316,19.5,1.0,2.25,-0.09423828125,1.0048828125,0.0673828125
1969/12/31/18:00:09.684,119,1731185278,685955595,RU_myo,0.6734512111036484,0.6017295421970239,0.3071518620750075,0.3000712547616727,6.0625,-3.5,-3.125,-0.0869140625,1.00146484375,-0.02001953125
1969/12/31/18:00:09.696,120,1731185278,696440541,RU_myo,0.6737317547495781,0.602195822826539,0.306347135086803,0.2993278243605663,-0.625,-6.875,-0.1875,-0.0478515625,0.95703125,0.064453125
1969/12/31/18:00:09.717,121,1731185278,716087260,RU_myo,0.674494627432318,0.6017346640025151,0.3052011888834018,0.2997075674835006,-4.375,-3.625,3.875,-0.0537109375,0.93994140625,0.1240234375
1969/12/31/18:00:09.743,122,1731185278,738401111,RU_myo,0.6756354528777652,0.6004359878903763,0.3046432871364103,0.3003095517353514,-10.25,0.0,1.5,-0.07275390625,0.98291015625,0.10498046875
1969/12/31/18:00:09.761,123,1731185278,754989488,RU_myo,0.6767275658376675,0.5990873147557235,0.3043351351372427,0.3008559729425329,-12.25,0.8125,-0.125,-0.06689453125,0.97998046875,0.0693359375
1969/12/31/18:00:09.785,124,1731185278,775935337,RU_myo,0.6773431600638995,0.5983594663518434,0.3040933246317335,0.3011634812791998,-6.6875,0.4375,-0.25,-0.0478515625,0.94970703125,0.08154296875
1969/12/31/18:00:09.810,125,1731185278,798543710,RU_myo,0.6773431171632411,0.5982373516551254,0.3039101901735404,0.3015907309996913,1.3125,0.9375,1.8125,-0.0458984375,0.955078125,0.1357421875
1969/12/31/18:00:09.828,126,1731185278,815002938,RU_myo,0.6768082896949295,0.5984333037670534,0.3045271065375183,0.3017803196475226,6.9375,4.0625,-0.6875,-0.04443359375,1.00341796875,0.14892578125
1969/12/31/18:00:09.852,127,1731185278,836053156,RU_myo,0.6761434305792915,0.5987443270336977,0.3056898348236067,0.3014780539524348,7.125,3.875,-1.9375,-0.0751953125,1.001953125,0.11474609375
1969/12/31/18:00:09.878,128,1731185278,858456463,RU_myo,0.6760252591865716,0.5987477893779757,0.3063630497388174,0.3010525127140561,-0.3125,0.8125,-1.75,-0.0849609375,0.9970703125,0.05810546875
1969/12/31/18:00:09.898,129,1731185278,876534715,RU_myo,0.6767434854837803,0.598002699313123,0.3064786723743177,0.3008020110457354,-6.4375,-0.6875,-2.9375,-0.07080078125,0.97607421875,0.0712890625
1969/12/31/18:00:09.919,130,1731185278,896217112,RU_myo,0.6777037561656044,0.5969506201296596,0.3066543880911462,0.3005505985192683,-7.0,-0.0625,-4.75,-0.0595703125,0.9697265625,0.08935546875
1969/12/31/18:00:09.945,131,1731185278,918507364,RU_myo,0.6786416478951347,0.5958104987501718,0.3068475952481419,0.3004994452768257,-9.25,0.6875,-3.6875,-0.07080078125,0.9716796875,0.0712890625
1969/12/31/18:00:09.964,132,1731185278,936353231,RU_myo,0.6786973913773521,0.595683770343698,0.3072114372517504,0.3002529425474588,-1.0625,0.6875,-3.375,-0.044921875,0.9208984375,0.0732421875
1969/12/31/18:00:09.987,133,1731185278,956012344,RU_myo,0.6780702349003686,0.5964015001540643,0.3075090326247238,0.2999403307498794,4.0625,0.1875,-2.5,-0.017578125,0.95849609375,0.0673828125
1969/12/31/18:00:10.012,134,1731185278,978443910,RU_myo,0.6773522842097247,0.5972077812659229,0.3076987352168354,0.2997636359154688,5.0625,0.25,-1.0,-0.02978515625,1.01611328125,0.087890625
1969/12/31/18:00:10.031,135,1731185278,996406443,RU_myo,0.6771172485336973,0.5970327060225451,0.3083132806584066,0.3000118341785921,2.875,4.125,-2.6875,-0.03466796875,0.9951171875,0.12744140625
1969/12/31/18:00:10.054,136,1731185279,16220611,RU_myo,0.6772513500335964,0.5961887278754516,0.3090512469779268,0.3006275708801678,-3.8125,6.3125,-2.875,-0.0439453125,0.94287109375,0.087890625
1969/12/31/18:00:10.080,137,1731185279,38526350,RU_myo,0.6775702551606125,0.5953535959676259,0.3090906920217405,0.3015221205741308,-9.625,4.0,-0.75,-0.029296875,0.91015625,0.03759765625
1969/12/31/18:00:10.100,138,1731185279,56791454,RU_myo,0.6785684484450627,0.5939686580749217,0.3080018342047123,0.3031187294214429,-19.125,1.875,3.125,-0.01806640625,0.99951171875,0.02392578125
1969/12/31/18:00:10.121,139,1731185279,75894685,RU_myo,0.6806978528351438,0.5909717190772832,0.3065948094324719,0.3056181984527946,-28.5625,4.375,2.1875,-0.009765625,0.9921875,0.0771484375
1969/12/31/18:00:10.147,140,1731185279,98404012,RU_myo,0.6837760861499688,0.5874541200774236,0.3043481133318822,0.3077663833572703,-41.375,-0.6875,-0.0625,0.00732421875,0.970703125,-0.015625
1969/12/31/18:00:10.166,141,1731185279,116529840,RU_myo,0.6880151259414972,0.5832747110980259,0.3010981739060864,0.3094603165829835,-54.5,-7.0,-4.0625,0.04296875,1.03173828125,-0.07568359375
1969/12/31/18:00:10.191,142,1731185279,137520155,RU_myo,0.6933376472868592,0.5783408933922873,0.2975632564947124,0.3102592887718202,-58.25,-11.0625,-12.6875,0.080078125,1.10888671875,-0.01513671875
1969/12/31/18:00:10.213,143,1731185279,158387560,RU_myo,0.6991474372531118,0.5735890054013875,0.2939666542527489,0.3094707095227236,-53.4375,-17.5,-19.3125,0.07470703125,1.0546875,0.0283203125
1969/12/31/18:00:10.234,144,1731185279,176320122,RU_myo,0.7063432924876546,0.5690665845024545,0.2888365416567215,0.3062936952733365,-65.8125,-34.9375,-24.4375,0.05126953125,1.0771484375,-0.0869140625
1969/12/31/18:00:10.256,145,1731185279,195929148,RU_myo,0.7164102911157668,0.5636306235122256,0.2812659641698435,0.2999437821029972,-87.4375,-58.875,-35.3125,0.0244140625,1.2138671875,-0.17724609375
1969/12/31/18:00:10.282,146,1731185279,218500819,RU_myo,0.7329539624296912,0.5524622180172498,0.2705239808034969,0.2904836698203614,-111.5625,-82.375,-52.5,0.00634765625,1.234375,-0.228515625
1969/12/31/18:00:10.302,147,1731185279,236555887,RU_myo,0.754751068091,0.5357420238281203,0.2556326302600168,0.2792548432281702,-155.5,-104.0,-64.6875,0.0400390625,1.0146484375,-0.224609375
1969/12/31/18:00:10.323,148,1731185279,255958846,RU_myo,0.7788450916184716,0.515466050056269,0.2373158084806126,0.2671633985904428,-180.125,-119.0,-66.6875,0.076171875,0.759765625,-0.130859375
1969/12/31/18:00:10.348,149,1731185279,278561948,RU_myo,0.8015357637557115,0.4965346815529022,0.2166197399915488,0.2531197694406743,-168.3125,-134.875,-65.5625,0.12744140625,0.64013671875,0.01953125
1969/12/31/18:00:10.369,150,1731185279,296532756,RU_myo,0.8204212302172521,0.4823278447419631,0.1953238551220301,0.2368912130401871,-131.375,-145.8125,-62.25,0.15478515625,0.56396484375,0.18798828125
1969/12/31/18:00:10.369,1,1731185286,129317260,RU_myo,0.8791440943313051,0.4232757771582617,-0.1937241985148266,-0.1020500503833617,-192.875,243.25,-77.25,0.62255859375,0.4970703125,0.49462890625
1969/12/31/18:00:10.374,2,1731185286,134125230,RU_myo,0.8975607567733197,0.4032767031622797,-0.1501529725713952,-0.0959514117407452,-161.625,247.375,-48.3125,0.56591796875,0.375,0.53125
1969/12/31/18:00:10.393,3,1731185286,150623924,RU_myo,0.9100781835254796,0.3907659645157693,-0.1101737841222998,-0.0831949405865344,-101.6875,243.625,-14.8125,0.4892578125,0.29931640625,0.53125
1969/12/31/18:00:10.417,4,1731185286,173080982,RU_myo,0.9166006673923798,0.3874662739965923,-0.0734281549492597,-0.0657374255032025,-35.9375,237.0,9.4375,0.375,0.30615234375,0.4794921875
1969/12/31/18:00:10.442,5,1731185286,194525857,RU_myo,0.9173558918319624,0.393640837475835,-0.0397364219563914,-0.0438870773988409,28.625,232.5625,33.0,0.37744140625,0.30810546875,0.43212890625
1969/12/31/18:00:10.468,6,1731185286,218083880,RU_myo,0.9129565188377552,0.4074946660266667,-0.007263610733549,-0.020142786067825,80.25,230.6875,43.1875,0.31494140625,0.369140625,0.3701171875
1969/12/31/18:00:10.485,7,1731185286,233130218,RU_myo,0.903751653633423,0.4273379256441709,0.0243547825070738,0.0047000457469791,122.625,228.875,50.5625,0.27490234375,0.40478515625,0.32763671875
1969/12/31/18:00:10.508,8,1731185286,254110992,RU_myo,0.8902750667556132,0.4511801243286366,0.0542002097407777,0.0301519184819191,153.3125,220.3125,59.3125,0.18603515625,0.462890625,0.3037109375
1969/12/31/18:00:10.526,9,1731185286,270052853,RU_myo,0.874417884560677,0.475357146793142,0.0808131564399229,0.0538347462084683,159.0625,199.5625,59.5,0.12255859375,0.64794921875,0.2353515625
1969/12/31/18:00:10.552,10,1731185286,293241836,RU_myo,0.8596623497304265,0.4940433867309054,0.1053519749811641,0.0761757038102508,125.5625,185.75,56.1875,0.06396484375,0.80712890625,0.09765625
1969/12/31/18:00:10.577,11,1731185286,314801130,RU_myo,0.8488517688055623,0.5039275331314247,0.1278130153073162,0.0957682048792642,71.875,168.5,42.0,-0.00830078125,0.85498046875,0.08837890625
1969/12/31/18:00:10.593,12,1731185286,329952509,RU_myo,0.8423424355657915,0.506687286784901,0.1438696464223601,0.1141435039498572,20.4375,133.625,48.125,-0.1044921875,1.09765625,0.09130859375
1969/12/31/18:00:10.620,13,1731185286,353494663,RU_myo,0.8397741117835343,0.5037545969290238,0.1538181975355797,0.1317220913816592,-23.5,101.25,56.1875,-0.2275390625,1.17138671875,0.0341796875
1969/12/31/18:00:10.643,14,1731185286,374092159,RU_myo,0.842343201335682,0.493075969593452,0.1615711923141703,0.1457009580861067,-87.4375,76.5625,40.4375,-0.236328125,0.88720703125,0.10205078125
1969/12/31/18:00:10.678,15,1731185286,404387053,RU_myo,0.8442147614044587,0.4852510558286058,0.164008753083203,0.1579049662174343,-62.25,49.25,44.0,-0.109375,0.68115234375,0.2099609375
1969/12/31/18:00:10.687,16,1731185286,413250401,RU_myo,0.8408286539383684,0.4877367721850683,0.1630875554096486,0.1688859527763839,-1.375,28.8125,54.9375,0.005859375,0.7626953125,0.220703125
1969/12/31/18:00:10.710,17,1731185286,434166713,RU_myo,0.8348910317286518,0.494537734980665,0.1630961278534111,0.1782948313846609,32.4375,28.4375,49.625,0.02880859375,0.8857421875,0.330078125
1969/12/31/18:00:10.728,18,1731185286,449899068,RU_myo,0.8250558713594991,0.507778337932949,0.1640101447320392,0.1858618871265572,90.125,26.25,47.75,0.0625,0.77783203125,0.4521484375
1969/12/31/18:00:10.754,19,1731185286,472980745,RU_myo,0.8117430795006778,0.5262077666272158,0.1655958323697525,0.1917200550952424,121.5625,18.3125,52.3125,0.0771484375,0.92431640625,0.37353515625
1969/12/31/18:00:10.780,20,1731185286,495783969,RU_myo,0.7998536988970695,0.5415370891800061,0.1674907318203265,0.1972777132810843,95.0,21.5625,42.5,0.0107421875,1.18212890625,0.3134765625
1969/12/31/18:00:10.795,21,1731185286,510020383,RU_myo,0.7922386736048657,0.550520116899783,0.1706679506432856,0.200394449914845,55.6875,20.4375,21.5625,-0.0673828125,1.240234375,0.29736328125
1969/12/31/18:00:10.830,22,1731185286,540533545,RU_myo,0.7892319987860258,0.5538052532858169,0.172312601127065,0.2017943532858933,18.1875,10.5,9.125,-0.0751953125,1.10498046875,0.28173828125
1969/12/31/18:00:10.848,23,1731185286,556408087,RU_myo,0.7895982964525025,0.5528897162389276,0.1720684599334882,0.2030761852425383,-11.125,3.5,4.8125,-0.041015625,0.97119140625,0.28076171875
1969/12/31/18:00:10.871,24,1731185286,576832320,RU_myo,0.7904179851035775,0.5518277222642042,0.1711453305197244,0.2035555197158634,-11.8125,-2.25,2.8125,-0.03857421875,0.8955078125,0.2705078125
1969/12/31/18:00:10.888,25,1731185286,593175700,RU_myo,0.7901189784658833,0.5527475835447694,0.169986972192158,0.2031908906383102,-1.8125,-7.125,2.0,-0.02197265625,0.81689453125,0.19677734375
1969/12/31/18:00:10.914,26,1731185286,615479899,RU_myo,0.7892878473276127,0.5547782263058288,0.1677946247238115,0.2027086026583405,6.75,-12.375,5.625,-0.00439453125,0.7802734375,0.2255859375
1969/12/31/18:00:10.938,27,1731185286,636575813,RU_myo,0.7864791978885698,0.5599658642941202,0.1630944832563646,0.2031966821708225,31.5,-19.8125,16.125,0.11279296875,0.828125,0.35595703125
1969/12/31/18:00:10.956,28,1731185286,653083212,RU_myo,0.7824548191711918,0.5659506266756603,0.1590667960652255,0.2053341143374591,39.5625,-10.875,22.0625,0.14208984375,1.04931640625,0.4375
1969/12/31/18:00:10.989,29,1731185286,683154897,RU_myo,0.7812526541131446,0.5670017895192594,0.1579718625552635,0.2078416506957776,6.625,4.1875,14.4375,0.02734375,1.1904296875,0.40625
1969/12/31/18:00:11.005,30,1731185286,696683392,RU_myo,0.7837855675636832,0.5627679256239513,0.1588812267244192,0.2091152834259932,-26.5625,9.8125,-1.25,-0.056640625,1.10888671875,0.37744140625
1969/12/31/18:00:11.023,31,1731185286,713105971,RU_myo,0.7876527102911118,0.5575340867792169,0.1598012085820002,0.2079002736555739,-31.9375,2.3125,-15.6875,-0.05712890625,0.97314453125,0.36865234375
1969/12/31/18:00:11.049,32,1731185286,735669432,RU_myo,0.7900718906891018,0.5545884733313643,0.1598577164489151,0.2065515511504883,-18.0,-2.3125,-13.75,0.0068359375,0.86865234375,0.33251953125
1969/12/31/18:00:11.072,33,1731185286,756803841,RU_myo,0.7898508990594674,0.5551540901812871,0.1599234432407886,0.2058251338198241,7.8125,0.3125,-10.25,0.091796875,0.89208984375,0.3720703125
1969/12/31/18:00:11.090,34,1731185286,773020422,RU_myo,0.7868930245846546,0.5591017766983739,0.1613826525753821,0.2053295171193591,36.0,6.5625,-9.1875,0.11767578125,0.9453125,0.4208984375
1969/12/31/18:00:11.116,35,1731185286,795939340,RU_myo,0.782988521051821,0.5639861189989731,0.1638245393282731,0.2049637865366397,43.5625,9.3125,-5.0,0.04296875,0.96826171875,0.40478515625
1969/12/31/18:00:11.141,36,1731185286,818139097,RU_myo,0.7796339384319666,0.5680774340394827,0.1668769425877238,0.2039878354528797,35.1875,8.625,-5.5,-0.04541015625,1.00390625,0.33544921875
1969/12/31/18:00:11.158,37,1731185286,833178608,RU_myo,0.7768719347555748,0.571667390078623,0.1699254766152985,0.201969612830468,33.0625,5.5625,-12.75,-0.03271484375,1.0185546875,0.34423828125
1969/12/31/18:00:11.184,38,1731185286,855683733,RU_myo,0.7747041582323386,0.574741124638804,0.1723124675929634,0.1995357621542322,29.3125,2.8125,-17.4375,0.02490234375,1.005859375,0.3466796875
1969/12/31/18:00:11.207,39,1731185286,876793451,RU_myo,0.772458070080224,0.5777412590524947,0.17493993116159,0.1972804806400066,28.3125,3.125,-14.5625,-0.0205078125,0.93505859375,0.296875
1969/12/31/18:00:11.225,40,1731185286,893155970,RU_myo,0.7690750663271785,0.5822996930762923,0.1779249062177559,0.1944050862104812,40.5625,2.0,-13.9375,-0.0537109375,0.98193359375,0.3046875
1969/12/31/18:00:11.251,41,1731185286,915768399,RU_myo,0.7635363349776737,0.5895753025461148,0.1812246685225608,0.1912350577572189,65.8125,2.5,-13.4375,-0.02197265625,0.919921875,0.35205078125
1969/12/31/18:00:11.275,42,1731185286,938328827,RU_myo,0.7562171681204182,0.5987965468771734,0.1843389981212093,0.1886727957591583,76.5,3.5,-7.9375,0.00732421875,0.93310546875,0.28515625
1969/12/31/18:00:11.301,43,1731185286,960742410,RU_myo,0.7494248946647009,0.607267329941286,0.1868374004372576,0.1862270201679428,69.5,0.5625,-2.375,-0.064453125,1.00146484375,0.25634765625
1969/12/31/18:00:11.318,44,1731185286,975506515,RU_myo,0.7437010770987991,0.6142980663101045,0.1898928144168059,0.1829953897851444,58.8125,0.4375,-9.9375,-0.0732421875,0.994140625,0.203125
1969/12/31/18:00:11.342,45,1731185286,996765143,RU_myo,0.7384968042072644,0.6204496251563636,0.1935509848864563,0.1794512442655886,52.6875,2.625,-16.875,-0.03857421875,0.88037109375,0.14404296875
1969/12/31/18:00:11.360,46,1731185287,13195297,RU_myo,0.7325852881423651,0.6272937015696622,0.1962391019311535,0.1769509040430525,50.0625,1.8125,-8.8125,-0.03271484375,0.93701171875,0.0546875
1969/12/31/18:00:11.385,47,1731185287,35643170,RU_myo,0.7279602056529609,0.6324940173550211,0.1984402673635565,0.1750620383877823,39.375,2.1875,-4.3125,-0.07958984375,0.97998046875,0.068359375
1969/12/31/18:00:11.409,48,1731185287,56706030,RU_myo,0.723900378727856,0.6366783179182349,0.2019718678929574,0.1726740448078503,34.8125,5.9375,-12.25,-0.0908203125,0.90625,0.0478515625
1969/12/31/18:00:11.436,49,1731185287,80456339,RU_myo,0.7193549004064704,0.6414069828995496,0.2056433313083919,0.169812926001765,34.3125,4.5625,-14.4375,-0.0791015625,0.81640625,-0.05224609375
1969/12/31/18:00:11.453,50,1731185287,95573024,RU_myo,0.7138521358923811,0.6474416079872156,0.2078991342325309,0.1673691797021726,37.25,-0.25,-4.125,-0.091796875,0.822265625,-0.12060546875
1969/12/31/18:00:11.476,51,1731185287,116598387,RU_myo,0.7086076809720228,0.6536110817338633,0.2083888898990856,0.1650508372252863,35.75,-7.5,2.9375,-0.0986328125,0.921875,-0.11962890625
1969/12/31/18:00:11.494,52,1731185287,133264499,RU_myo,0.7047493978393748,0.6584822885753661,0.2082019916880398,0.1624231896458147,30.75,-10.9375,-0.6875,-0.07666015625,0.95947265625,-0.044921875
1969/12/31/18:00:11.520,53,1731185287,155588929,RU_myo,0.7021193107519359,0.66213946649022,0.2072848108592171,0.1601024908373753,18.5625,-13.625,-0.25,-0.06005859375,0.9443359375,-0.080078125
1969/12/31/18:00:11.544,54,1731185287,176582831,RU_myo,0.7019444675314709,0.6633070024925647,0.2052119391165917,0.1587004883114629,2.3125,-14.5,4.6875,-0.0849609375,0.91015625,-0.00732421875
1969/12/31/18:00:11.562,55,1731185287,192503227,RU_myo,0.7021744835414188,0.6642702455129746,0.2022780109923732,0.157415507045664,0.9375,-17.875,5.4375,-0.04833984375,0.91455078125,0.01904296875
1969/12/31/18:00:11.595,56,1731185287,222920700,RU_myo,0.7025045360529538,0.6647210355040983,0.1999656668789188,0.1569938019574417,-1.3125,-11.8125,5.5625,-0.04736328125,1.01611328125,0.0341796875
1969/12/31/18:00:11.621,57,1731185287,245470553,RU_myo,0.7031126972791312,0.6644747653946195,0.1991715193351684,0.1563218697570843,2.375,-5.9375,0.6875,-0.0908203125,0.9990234375,0.1171875
1969/12/31/18:00:11.629,58,1731185287,252985169,RU_myo,0.702929136511378,0.6651457798336651,0.1988661971825347,0.1546737089197492,10.875,-7.4375,-4.4375,-0.07177734375,0.9365234375,0.12060546875
1969/12/31/18:00:11.655,59,1731185287,276408925,RU_myo,0.7025380069611642,0.6658546583787437,0.1989201880700637,0.1533254103810985,4.4375,-5.4375,-2.8125,-0.10595703125,1.05126953125,0.01123046875
1969/12/31/18:00:11.686,60,1731185287,304167266,RU_myo,0.7018666711341615,0.6666482113337951,0.2011785849254888,0.1499683808136911,13.0625,-3.6875,-11.5,-0.21826171875,1.07763671875,0.056640625
1969/12/31/18:00:11.696,61,1731185287,312535120,RU_myo,0.6990161606422256,0.6699616991974386,0.2044799282353698,0.1439294539638812,39.4375,-9.0625,-24.3125,-0.1845703125,1.00634765625,0.09765625
1969/12/31/18:00:11.722,62,1731185287,335542557,RU_myo,0.697782732071519,0.6718417190265229,0.2059411247383926,0.1389827922434262,24.25,-12.8125,-19.625,-0.13427734375,0.966796875,0.08154296875
1969/12/31/18:00:11.746,63,1731185287,356667315,RU_myo,0.6979105485469905,0.6723965893644961,0.2066142388343154,0.1345891865966516,-0.5,-15.75,-16.6875,-0.169921875,1.14208984375,-0.1025390625
1969/12/31/18:00:11.771,64,1731185287,380168765,RU_myo,0.70041755011469,0.6702644982840446,0.2091181286878368,0.1281809895634726,-8.75,-16.0625,-31.875,-0.2646484375,1.27392578125,0.02001953125
1969/12/31/18:00:11.774,65,1731185287,381615876,RU_myo,0.703888588596284,0.6670827596920558,0.2125338246177819,0.1198783548389786,-6.1875,-19.1875,-50.25,-0.181640625,1.01123046875,0.1279296875
1969/12/31/18:00:11.795,66,1731185287,401003613,RU_myo,0.7094365674611058,0.6615833222671365,0.2143630065321693,0.1142618303611107,-31.625,-16.5,-45.0,-0.0986328125,1.095703125,0.08837890625
1969/12/31/18:00:11.821,67,1731185287,423518440,RU_myo,0.7174350133447411,0.6527962793705978,0.2166221594657551,0.1105389492230156,-54.5625,-8.0625,-43.0,-0.166015625,1.26025390625,0.146484375
1969/12/31/18:00:11.842,68,1731185287,442784203,RU_myo,0.7256241544397045,0.6424288547676557,0.2225459006634558,0.1059626120547886,-51.5,6.25,-61.75,-0.15771484375,1.01171875,0.255859375
1969/12/31/18:00:11.862,69,1731185287,461046480,RU_myo,0.7336701546018716,0.6312493127198466,0.2293177014009344,0.1032753661885496,-54.4375,17.6875,-57.5625,-0.14013671875,0.83056640625,0.2890625
1969/12/31/18:00:11.888,70,1731185287,483605669,RU_myo,0.741263277938862,0.6197947401343219,0.2358564975260015,0.1037060531306099,-62.875,27.6875,-39.625,-0.2353515625,0.892578125,0.25244140625
1969/12/31/18:00:11.923,71,1731185287,514827663,RU_myo,0.7473710881595786,0.6088718232923716,0.2437318486622997,0.1063312998671991,-55.375,43.5625,-34.125,-0.2412109375,0.91259765625,0.30322265625
1969/12/31/18:00:11.930,72,1731185287,521059271,RU_myo,0.7521073314522757,0.598048014410761,0.254222288224211,0.1097459001745813,-48.3125,59.875,-39.9375,-0.216796875,0.8173828125,0.322265625
1969/12/31/18:00:11.955,73,1731185287,543552512,RU_myo,0.755218735247704,0.5887080499041546,0.2649644006878108,0.1134079374517282,-40.375,62.125,-31.75,-0.29443359375,0.7734375,0.275390625
1969/12/31/18:00:11.973,74,1731185287,560038151,RU_myo,0.7579820919055776,0.5798703392738757,0.2737598391203508,0.1194532898904183,-44.9375,60.1875,-12.25,-0.3359375,0.80712890625,0.24267578125
1969/12/31/18:00:11.997,75,1731185287,581034593,RU_myo,0.7593214259629288,0.572298849664664,0.2827922963413383,0.1262280312613614,-31.6875,67.5,-11.4375,-0.25,0.70458984375,0.29248046875
1969/12/31/18:00:12.023,76,1731185287,603517221,RU_myo,0.7580833145338131,0.5675858890378364,0.2921245365023212,0.1334885836461714,-16.375,71.5625,-5.9375,-0.2236328125,0.736328125,0.22265625
1969/12/31/18:00:12.041,77,1731185287,620054907,RU_myo,0.7560966696925326,0.5637000681852377,0.3009859270407587,0.1413065141146535,-18.375,69.25,2.125,-0.28173828125,0.7978515625,0.1318359375
1969/12/31/18:00:12.064,78,1731185287,641018249,RU_myo,0.7525404064329401,0.5624673408451247,0.3076937455453363,0.1504592506981261,-4.5,65.9375,16.125,-0.1884765625,0.7197265625,0.130859375
1969/12/31/18:00:12.090,79,1731185287,663425302,RU_myo,0.7487540161540163,0.561489214526844,0.3141629511000833,0.1593704032100869,5.0,66.625,18.625,-0.205078125,0.6953125,0.2333984375
1969/12/31/18:00:12.109,80,1731185287,680548775,RU_myo,0.7421337227842927,0.5643219499211043,0.3210134272185059,0.166519229787428,21.5,59.0625,25.3125,-0.31298828125,0.7333984375,0.04248046875
1969/12/31/18:00:12.131,81,1731185287,701051742,RU_myo,0.7340525952704249,0.5699803038944975,0.3255199144002308,0.1741436931902978,30.9375,50.0625,38.4375,-0.26123046875,0.7607421875,-0.029296875
1969/12/31/18:00:12.157,82,1731185287,723586788,RU_myo,0.7249396250335559,0.5777787733070338,0.328319461400648,0.1812196469415363,47.375,43.25,38.6875,-0.1591796875,0.86767578125,0.0302734375
1969/12/31/18:00:12.175,83,1731185287,740027310,RU_myo,0.7161598036739321,0.5854162342995554,0.3302770559686053,0.187936251215549,41.0625,37.4375,38.0,-0.1591796875,0.9892578125,-0.03076171875
1969/12/31/18:00:12.199,84,1731185287,761085006,RU_myo,0.7092636077218093,0.5915209657858911,0.3306438006049088,0.1942234767444748,21.375,25.5,39.0,-0.181640625,1.01416015625,-0.13671875
1969/12/31/18:00:12.235,85,1731185287,792618640,RU_myo,0.7041333486454221,0.5967676620757881,0.3283839646075217,0.200570577639464,17.25,14.75,44.0625,-0.11083984375,0.80517578125,-0.04345703125
1969/12/31/18:00:12.241,86,1731185287,798573855,RU_myo,0.6993706549115145,0.602198540875982,0.3244156947857129,0.2073452709665225,14.875,9.3125,47.9375,-0.08056640625,0.982421875,-0.0234375
1969/12/31/18:00:12.266,87,1731185287,821026204,RU_myo,0.696271951097947,0.6055069479172117,0.3205768639577818,0.2140027580038048,-5.9375,7.3125,41.625,-0.1083984375,1.189453125,-0.11279296875
1969/12/31/18:00:12.292,88,1731185287,843577110,RU_myo,0.6952133012177569,0.6065263015101713,0.3175153286158711,0.2190623826225223,-10.5,5.4375,27.125,-0.0771484375,0.97802734375,-0.01123046875
1969/12/31/18:00:12.317,89,1731185287,866031458,RU_myo,0.692592160732772,0.6097643153009951,0.3136105157173686,0.2239464737576928,9.0,2.6875,34.3125,-0.0224609375,0.84033203125,0.06396484375
1969/12/31/18:00:12.333,90,1731185287,881172252,RU_myo,0.6890710709596929,0.6138708265250803,0.3097126950172275,0.2289578870732401,12.0625,3.125,37.75,-0.056640625,1.10302734375,0.02490234375
1969/12/31/18:00:12.363,91,1731185287,906497497,RU_myo,0.6869202378537228,0.615872152118719,0.30750881093896,0.2329815663664173,2.0625,6.5,25.1875,-0.09765625,1.22314453125,0.0166015625
1969/12/31/18:00:12.384,92,1731185287,926082581,RU_myo,0.6853985068957705,0.6170967053803758,0.3057405931998321,0.2365232179375822,1.25,6.625,19.8125,-0.06298828125,0.96240234375,0.04248046875
1969/12/31/18:00:12.401,93,1731185287,941072020,RU_myo,0.6841864202005238,0.6185084303588105,0.302875637169685,0.240005442432729,-0.9375,1.5,22.8125,-0.037109375,0.96630859375,0.03759765625
1969/12/31/18:00:12.430,94,1731185287,966485669,RU_myo,0.6830333869230597,0.6199794558514314,0.3000707891075748,0.2429987411385791,-2.6875,-0.6875,23.125,-0.08984375,1.14013671875,0.01171875
1969/12/31/18:00:12.443,95,1731185287,978649079,RU_myo,0.6824815078448432,0.6205265189831568,0.2986047344939605,0.2449511037457611,-0.6875,1.1875,15.5625,-0.12353515625,1.048828125,0.06298828125
1969/12/31/18:00:12.468,96,1731185288,1121423,RU_myo,0.6806456344074361,0.6224144501885593,0.2981143644916077,0.2458650000352571,11.0625,1.8125,10.125,-0.0791015625,0.90087890625,0.03515625
1969/12/31/18:00:12.494,97,1731185288,23494072,RU_myo,0.6781594105418265,0.6252983799811405,0.2967786727321656,0.2470307051721666,9.8125,-1.0625,11.375,-0.0107421875,1.07080078125,-0.0458984375
1969/12/31/18:00:12.512,98,1731185288,40057925,RU_myo,0.6781420320238495,0.6256485894009413,0.295061978650161,0.2482451524969393,-9.5,-3.25,5.4375,-0.0224609375,1.1689453125,-0.0390625
1969/12/31/18:00:12.544,99,1731185288,68648806,RU_myo,0.6788224571818215,0.6249854454711511,0.2943334132299922,0.2489198795420797,2.0625,0.375,2.0625,-0.05615234375,0.822265625,0.171875
1969/12/31/18:00:12.561,100,1731185288,83583725,RU_myo,0.6763215986037321,0.6280390729272383,0.2931744258207333,0.2494088494489936,22.0625,-2.5625,12.6875,-0.03466796875,0.7705078125,0.08056640625
1969/12/31/18:00:12.580,101,1731185288,100628241,RU_myo,0.6730941202242087,0.631281345003969,0.2920179805162433,0.2513039351558055,15.1875,2.5625,20.5,-0.07275390625,1.16552734375,-0.01806640625
1969/12/31/18:00:12.603,102,1731185288,121069126,RU_myo,0.6732553842779976,0.630772542260093,0.2912760375135634,0.2530048565577787,-7.9375,4.0,4.375,-0.044921875,1.279296875,0.02197265625
1969/12/31/18:00:12.628,103,1731185288,143495875,RU_myo,0.6769116278806465,0.6264331863786361,0.2912123874317912,0.2541012720349081,-28.6875,4.125,-11.875,-0.0283203125,1.0732421875,0.09228515625
1969/12/31/18:00:12.646,104,1731185288,160001238,RU_myo,0.680754165987837,0.6219137628664997,0.2910890897154124,0.2550768097967516,-26.5,3.6875,-12.3125,-0.02685546875,0.970703125,0.15234375
1969/12/31/18:00:12.670,105,1731185288,181181297,RU_myo,0.6832745057762131,0.6187559107605388,0.2911577088219167,0.255938002744297,-19.875,4.125,-5.625,-0.08251953125,0.927734375,0.1005859375
1969/12/31/18:00:12.698,106,1731185288,206370149,RU_myo,0.6831974811295383,0.6184972818981158,0.29151712408422,0.2563592799735603,-1.3125,3.1875,1.625,-0.09716796875,0.89306640625,0.05322265625
1969/12/31/18:00:12.714,107,1731185288,220071725,RU_myo,0.6823034752048044,0.619676586176344,0.2910990582619173,0.2563673819878492,5.6875,-1.875,3.9375,-0.06884765625,1.01123046875,0.0439453125
1969/12/31/18:00:12.737,108,1731185288,240978906,RU_myo,0.6832562636919987,0.618617315751153,0.2904785205387012,0.2570908864276128,-10.0,0.0,0.625,-0.0595703125,1.0166015625,0.06005859375
1969/12/31/18:00:12.766,109,1731185288,266486479,RU_myo,0.6854691093066925,0.6158845336513381,0.2898746927958577,0.2584395555480441,-25.0625,2.6875,-0.8125,-0.07275390625,0.97021484375,0.02490234375
1969/12/31/18:00:12.781,110,1731185288,279873718,RU_myo,0.6879583853615726,0.6128817449574617,0.289747001624646,0.2591059662727243,-24.875,1.75,-4.875,-0.095703125,1.001953125,0.03955078125
1969/12/31/18:00:12.805,111,1731185288,300980725,RU_myo,0.6893163165321922,0.6114912652988136,0.2899975046351231,0.2585012486065557,-8.5,-1.4375,-6.4375,-0.09130859375,0.9267578125,0.0859375
1969/12/31/18:00:12.830,112,1731185288,323496617,RU_myo,0.68931257077249,0.6119152149113798,0.2898738509340791,0.2576452989666767,0.1875,-4.0625,-4.875,-0.04296875,0.9248046875,0.03369140625
1969/12/31/18:00:12.876,113,1731185288,365246097,RU_myo,0.6886503344284092,0.6131441773917187,0.2893894021915518,0.2570383405671008,5.625,-4.75,0.9375,-0.0654296875,0.9853515625,0.05908203125
1969/12/31/18:00:12.882,114,1731185288,370004980,RU_myo,0.6891032346550152,0.6128685189699742,0.2890693462644953,0.2568420204985212,0.3125,-2.3125,0.3125,-0.09765625,0.98828125,0.1240234375
1969/12/31/18:00:12.893,115,1731185288,379449591,RU_myo,0.6893550650679519,0.6124480895069797,0.2891946430221317,0.2570279953073442,-0.375,1.5,1.125,-0.10498046875,0.92041015625,0.11083984375
1969/12/31/18:00:12.917,116,1731185288,401358746,RU_myo,0.6897371012832083,0.6119127823331119,0.2891402344051821,0.2573390813283192,-3.1875,1.125,0.1875,-0.08544921875,0.9775390625,0.09619140625
1969/12/31/18:00:12.941,117,1731185288,422414076,RU_myo,0.6906135306774295,0.6110165672689649,0.2881727486590193,0.2582018061486235,-10.1875,-0.9375,2.1875,-0.05859375,0.97021484375,0.07421875
1969/12/31/18:00:12.959,118,1731185288,438830122,RU_myo,0.6922281228685608,0.6092779404350563,0.2864497469907553,0.2598983640926137,-19.875,-1.125,5.25,-0.046875,0.998046875,0.06591796875
1969/12/31/18:00:12.985,119,1731185288,461469277,RU_myo,0.6941203059015117,0.6068974851898287,0.2855341884459437,0.2614243114822524,-19.4375,2.25,2.4375,-0.08251953125,1.00244140625,0.10498046875
1969/12/31/18:00:13.010,120,1731185288,484132651,RU_myo,0.6954002884660749,0.6050037443408878,0.2856555209357703,0.2622781567224369,-13.1875,4.125,-1.4375,-0.083984375,0.970703125,0.10498046875
1969/12/31/18:00:13.027,121,1731185288,499052476,RU_myo,0.6949967025653053,0.6051464350283188,0.286214609022371,0.2624091712917835,0.0625,3.0,-2.0,-0.05810546875,0.95458984375,0.06787109375
1969/12/31/18:00:13.052,122,1731185288,521519514,RU_myo,0.6943227384235954,0.6057546247134734,0.2863966847194294,0.2625913336877633,2.6875,1.8125,-0.8125,-0.03955078125,1.0087890625,0.0712890625
1969/12/31/18:00:13.074,123,1731185288,541036487,RU_myo,0.6936332592249507,0.606288205199,0.2863281959718623,0.263255917549913,4.4375,2.75,0.3125,-0.01806640625,0.98095703125,0.1162109375
1969/12/31/18:00:13.094,124,1731185288,558921820,RU_myo,0.6922007685236008,0.6074763711064264,0.2866468085526304,0.2639396933947134,8.625,4.4375,1.5,-0.01171875,0.93896484375,0.0859375
1969/12/31/18:00:13.120,125,1731185288,581529569,RU_myo,0.6901131758771424,0.6091136902598624,0.2872521321137301,0.2649726956025716,10.6875,6.9375,4.9375,-0.02685546875,0.96142578125,0.05908203125
1969/12/31/18:00:13.141,126,1731185288,600947341,RU_myo,0.6880231285666442,0.6106876686754148,0.287856376359146,0.2661267601623996,7.375,7.5,6.4375,-0.04296875,0.93505859375,0.009765625
1969/12/31/18:00:13.170,127,1731185288,626402894,RU_myo,0.6874854577538437,0.6105149203990007,0.2878612642073272,0.2679014182794655,-10.625,6.6875,6.75,-0.05078125,0.8740234375,-0.05029296875
1969/12/31/18:00:13.186,128,1731185288,641196144,RU_myo,0.6886352967222825,0.6092853688957476,0.2856597401755258,0.2700949466403208,-29.875,-2.0,10.25,-0.0283203125,0.92138671875,-0.1123046875
1969/12/31/18:00:13.211,129,1731185288,663166768,RU_myo,0.69212054565961,0.6064829122209969,0.2807791260282393,0.2725999080091558,-51.5,-12.25,12.3125,0.00634765625,1.04248046875,-0.123046875
1969/12/31/18:00:13.229,130,1731185288,678953540,RU_myo,0.6999365889807792,0.599466053926941,0.2733946090559789,0.2756530597224382,-81.75,-19.875,6.125,0.05712890625,1.0390625,-0.01123046875
1969/12/31/18:00:13.254,131,1731185288,701418801,RU_myo,0.7099341177903481,0.5902384076203823,0.2648443072042232,0.2783337268613178,-99.9375,-24.9375,-2.8125,0.13037109375,1.0361328125,0.015625
1969/12/31/18:00:13.277,132,1731185288,721562181,RU_myo,0.725071402660959,0.5758332866995107,0.2554443825352398,0.2782726260401812,-130.875,-38.1875,-16.9375,0.08447265625,1.25146484375,-0.10107421875
1969/12/31/18:00:13.304,133,1731185288,745606858,RU_myo,0.744915111892245,0.5580149092853904,0.2419570225779137,0.2741854049999971,-165.4375,-70.5625,-31.0625,-0.03125,1.4384765625,-0.234375
1969/12/31/18:00:13.321,134,1731185288,760520229,RU_myo,0.7691530038413302,0.535495540250773,0.2252951144495159,0.266252313527171,-199.25,-95.3125,-50.6875,-0.04736328125,1.20703125,-0.23046875
1969/12/31/18:00:13.345,135,1731185288,783174858,RU_myo,0.7947356136600416,0.5118170599492664,0.2064969724279509,0.2525818716839672,-202.5625,-122.125,-73.75,0.01220703125,0.8134765625,-0.18115234375
1969/12/31/18:00:13.363,136,1731185288,799158418,RU_myo,0.814891988835752,0.496467038962625,0.1883571775557734,0.2323641526101196,-137.125,-142.6875,-88.8125,0.09521484375,0.67626953125,-0.03955078125
1969/12/31/18:00:13.388,137,1731185288,820677197,RU_myo,0.8281493895925834,0.4914085153014364,0.1701710272836175,0.2091126038284338,-62.875,-157.1875,-83.5,0.166015625,0.55908203125,0.11865234375
1969/12/31/18:00:13.411,138,1731185288,841714568,RU_myo,0.8357492095614156,0.4945398843022633,0.1505227542198693,0.1851930398633753,-7.6875,-169.5625,-68.6875,0.26220703125,0.4501953125,0.1767578125
1969/12/31/18:00:13.429,139,1731185288,858119281,RU_myo,0.8390821551039646,0.5029487857755632,0.1285449202479776,0.1626648682150334,27.0625,-178.1875,-47.75,0.34423828125,0.41943359375,0.21826171875
1969/12/31/18:00:13.455,140,1731185288,880609743,RU_myo,0.838533105247514,0.5158278695914064,0.1040078913482139,0.1413018007459597,57.1875,-188.1875,-27.75,0.37255859375,0.47412109375,0.25732421875
1969/12/31/18:00:13.480,141,1731185288,903168985,RU_myo,0.8359282021335073,0.5296958698878843,0.0761765897234477,0.1218337124102578,64.0625,-198.4375,-6.3125,0.34814453125,0.529296875,0.28662109375
1969/12/31/18:00:13.505,142,1731185288,924257482,RU_myo,0.834107914165711,0.5397743347945395,0.0444369236379537,0.1045610579557894,40.9375,-208.8125,15.0625,0.302734375,0.60302734375,0.37451171875
1969/12/31/18:00:13.522,143,1731185288,940609645,RU_myo,0.8334778536239131,0.5451329703929088,0.0084843223473983,0.0898483632760454,11.875,-219.1875,38.25,0.333984375,0.69970703125,0.443359375
1969/12/31/18:00:13.546,144,1731185288,961758921,RU_myo,0.8354152116208139,0.5431083913934391,-0.0325327908083505,0.0778223419899567,-35.0625,-230.6875,65.4375,0.38330078125,0.7001953125,0.3828125
1969/12/31/18:00:13.564,145,1731185288,977965734,RU_myo,0.8404054079295821,0.5321733424168804,-0.0772106065096173,0.0674448380973337,-88.875,-238.3125,83.875,0.5166015625,0.7373046875,0.41015625
1969/12/31/18:00:13.590,146,1731185289,509701,RU_myo,0.8475066842200459,0.513387016274743,-0.1232958950035644,0.0544455140312769,-134.75,-249.3125,78.125,0.576171875,0.70361328125,0.421875
1969/12/31/18:00:13.613,147,1731185289,21834053,RU_myo,0.8535702111377276,0.4906319620369747,-0.1709093672186525,0.0385766857436387,-151.3125,-264.9375,71.8125,0.6123046875,0.5166015625,0.50439453125
1969/12/31/18:00:13.648,148,1731185289,53190144,RU_myo,0.8517697435030682,0.4713268333450872,-0.2274844739545636,0.0242926806101197,-117.1875,-308.375,97.875,0.96240234375,0.4111328125,0.11328125
1969/12/31/18:00:13.657,149,1731185289,60540907,RU_myo,0.8449524430535411,0.4540024757229096,-0.2824239654705435,0.0131842611933515,-82.0,-305.4375,111.875,0.79052734375,0.46875,0.73583984375
1969/12/31/18:00:13.657,1,1731185295,218211553,RU_myo,0.6610977318704534,0.3889312849670879,-0.6405891142074054,0.0364394188834512,4.5625,-2.0625,3.3125,0.87060546875,0.6083984375,-0.216796875
1969/12/31/18:00:13.681,2,1731185295,239277929,RU_myo,0.6613225451356173,0.3870278042182694,-0.6416690278736266,0.0335086365740151,-20.5625,-5.375,1.3125,0.8935546875,0.525390625,-0.19287109375
1969/12/31/18:00:13.709,3,1731185295,263301369,RU_myo,0.6618165327908655,0.3840403600774809,-0.6431394269129714,0.029724675040962,-28.4375,-8.5,-2.5,0.90478515625,0.451171875,-0.1796875
1969/12/31/18:00:13.733,4,1731185295,285962366,RU_myo,0.6618619785212242,0.3823223380170554,-0.6442839399917044,0.0258177440902321,-23.1875,-9.5625,-8.375,0.896484375,0.4501953125,-0.17138671875
1969/12/31/18:00:13.749,5,1731185295,299204211,RU_myo,0.6605155429626847,0.3836019393384285,-0.6450738101619492,0.0211789773986371,-10.0,-17.1875,-18.3125,0.86767578125,0.51220703125,-0.1474609375
1969/12/31/18:00:13.776,6,1731185295,324008968,RU_myo,0.6586270612266917,0.3876933641842225,-0.6447111155349405,0.0158690608765582,-0.625,-15.1875,-29.75,0.85107421875,0.583984375,-0.17333984375
1969/12/31/18:00:13.793,7,1731185295,338839479,RU_myo,0.6564457510176074,0.3926467239698994,-0.6440553756148576,0.010009958453453,1.1875,-15.5625,-34.375,0.84765625,0.62548828125,-0.19189453125
1969/12/31/18:00:13.817,8,1731185295,360932298,RU_myo,0.6535844053296741,0.3983886265957025,-0.6435132971041048,0.0021362956842116,-3.3125,-20.4375,-43.125,0.81396484375,0.640625,-0.24609375
1969/12/31/18:00:13.835,9,1731185295,376049155,RU_myo,0.6501666241109808,0.4040652508087394,-0.6433915118995351,-0.0078737790565449,-11.9375,-27.25,-54.75,0.8173828125,0.59765625,-0.28271484375
1969/12/31/18:00:13.860,10,1731185295,398329215,RU_myo,0.6476544610949454,0.4099797394378238,-0.6420391363922091,-0.0156862874848177,-2.1875,-21.0,-57.125,1.01953125,0.63916015625,-0.22021484375
1969/12/31/18:00:13.885,11,1731185295,420939716,RU_myo,0.6479504908257866,0.4151009125947791,-0.6382458819296581,-0.0222168404917658,-1.4375,-7.6875,-54.3125,1.103515625,0.7314453125,-0.08154296875
1969/12/31/18:00:13.902,12,1731185295,435960196,RU_myo,0.6530900617346594,0.4168179468771953,-0.6314831568884848,-0.0310675552731721,-29.0625,10.0625,-50.8125,1.0322265625,0.82177734375,0.03955078125
1969/12/31/18:00:13.927,13,1731185295,458606114,RU_myo,0.6627265245722406,0.4157757492527263,-0.6212832283681007,-0.0439457632797949,-62.75,26.9375,-59.1875,0.966796875,0.87890625,0.125
1969/12/31/18:00:13.951,14,1731185295,479374997,RU_myo,0.6758636388557886,0.4138314342492772,-0.6070748444016684,-0.0584124900555395,-81.625,51.625,-73.1875,0.9599609375,0.88330078125,0.158203125
1969/12/31/18:00:13.969,15,1731185295,495821926,RU_myo,0.6906245480865799,0.4135812583150389,-0.5887551383864913,-0.0731823979810702,-81.4375,72.9375,-92.75,0.953125,0.87451171875,0.22021484375
1969/12/31/18:00:13.995,16,1731185295,518343268,RU_myo,0.7053983622561252,0.4167569453564785,-0.56690663568702,-0.0856951891154797,-71.375,105.125,-107.125,1.04248046875,0.8623046875,0.23974609375
1969/12/31/18:00:14.026,17,1731185295,547002235,RU_myo,0.7206200690712417,0.4208855760409318,-0.5425249253810678,-0.0960664003318484,-62.125,122.0625,-108.5,0.9775390625,0.80859375,0.32861328125
1969/12/31/18:00:14.071,18,1731185295,586250076,RU_myo,0.7354779207196132,0.427004442602026,-0.51568904167303,-0.1039434770942324,-46.875,139.1875,-112.6875,0.8671875,0.58349609375,0.32080078125
1969/12/31/18:00:14.073,19,1731185295,588822542,RU_myo,0.7581414383759969,0.4261608181902593,-0.4803617357716042,-0.1134068748492554,-103.5625,189.0,-114.4375,0.85302734375,0.65771484375,0.50927734375
1969/12/31/18:00:14.086,20,1731185295,599397078,RU_myo,0.7836975094900392,0.4207186084824642,-0.4403720818512954,-0.122010227528862,-132.5,218.0625,-107.3125,0.79541015625,0.68896484375,0.5068359375
1969/12/31/18:00:14.105,21,1731185295,616328887,RU_myo,0.8114324529672728,0.4110875260068138,-0.3954008898993526,-0.1274462886862995,-153.3125,252.875,-94.625,0.8466796875,0.626953125,0.48486328125
1969/12/31/18:00:14.128,22,1731185295,638274822,RU_myo,0.839881549914703,0.3958918410426427,-0.3477329353098883,-0.1301938478174463,-177.75,271.25,-75.875,0.873046875,0.6962890625,0.4970703125
1969/12/31/18:00:14.152,23,1731185295,659240787,RU_myo,0.8650555265738159,0.3786639728260745,-0.3021255102335701,-0.1304327707816443,-174.125,259.9375,-57.8125,0.787109375,0.578125,0.50048828125
1969/12/31/18:00:14.198,24,1731185295,699619346,RU_myo,0.8868181199448871,0.3604892158024986,-0.2596547788729816,-0.1272027642621752,-162.875,246.125,-34.5,0.7431640625,0.4931640625,0.52294921875
1969/12/31/18:00:14.202,25,1731185295,704116818,RU_myo,0.9062743810880118,0.3416839968568622,-0.2187558850902097,-0.118594499087689,-150.6875,246.0625,-4.8125,0.70263671875,0.37646484375,0.58056640625
1969/12/31/18:00:14.219,26,1731185295,719274581,RU_myo,0.920974012906394,0.328679505567031,-0.1815824566503096,-0.1039445121598243,-100.375,235.875,24.0,0.6103515625,0.33056640625,0.64111328125
1969/12/31/18:00:14.238,27,1731185295,735232644,RU_myo,0.9303713571227242,0.3241620598096693,-0.1488667414565587,-0.0846568964330655,-38.1875,220.5625,45.75,0.5283203125,0.30712890625,0.6396484375
1969/12/31/18:00:14.264,28,1731185295,758359127,RU_myo,0.934863876566163,0.3286916933474005,-0.1189027704068219,-0.0620760356795369,22.3125,212.625,58.75,0.49951171875,0.3125,0.5703125
1969/12/31/18:00:14.286,29,1731185295,779258205,RU_myo,0.9341869969656204,0.3435220136506051,-0.0891155188219409,-0.0366838539808126,88.0625,217.3125,65.1875,0.4609375,0.33251953125,0.4638671875
1969/12/31/18:00:14.304,30,1731185295,795091053,RU_myo,0.9284337429037902,0.3667713076792371,-0.0582903309758148,-0.0095828083384323,143.0,224.6875,67.5625,0.3916015625,0.38916015625,0.4130859375
1969/12/31/18:00:14.331,31,1731185295,818532117,RU_myo,0.9180905872465176,0.3950456938142053,-0.0280169921910878,0.0162364268471227,177.1875,217.0625,60.5625,0.3173828125,0.56884765625,0.3818359375
1969/12/31/18:00:14.365,32,1731185295,848322939,RU_myo,0.9053752505529192,0.4226874947804871,0.0017700992561204,0.0403460554584696,177.0625,209.6875,53.25,0.2626953125,0.72265625,0.310546875
1969/12/31/18:00:14.372,33,1731185295,855142245,RU_myo,0.8938885116804356,0.4428852878629731,0.0300302593203669,0.0625630402507645,133.1875,198.0,47.5625,0.189453125,0.8154296875,0.19970703125
1969/12/31/18:00:14.399,34,1731185295,878288703,RU_myo,0.8838999485175212,0.456568718659696,0.0563996652461977,0.0841722276780375,97.5625,187.6875,48.1875,0.09130859375,0.728515625,0.2734375
1969/12/31/18:00:14.422,35,1731185295,899225735,RU_myo,0.8739938693710037,0.4685837652881622,0.0784940370145338,0.1019934182358368,87.875,156.8125,39.8125,0.05078125,0.7783203125,0.23828125
1969/12/31/18:00:14.439,36,1731185295,915233968,RU_myo,0.8661244666115507,0.4760327494787515,0.0964395107291226,0.1179858064806291,55.75,131.75,39.5,-0.02783203125,0.89208984375,0.1572265625
1969/12/31/18:00:14.466,37,1731185295,938419928,RU_myo,0.8589160270079081,0.4817058900757825,0.1118812590609363,0.1330611809890022,46.1875,117.8125,40.375,-0.02734375,0.78662109375,0.22412109375
1969/12/31/18:00:14.491,38,1731185295,960886766,RU_myo,0.848558493930836,0.4929476619900325,0.1261667678718916,0.1450276925319858,85.1875,101.9375,33.375,0.01806640625,0.703125,0.2529296875
1969/12/31/18:00:14.506,39,1731185295,975115006,RU_myo,0.836107351829379,0.5083298310727893,0.1372148727487548,0.1539394613311208,108.8125,75.625,32.25,0.01318359375,0.8525390625,0.181640625
1969/12/31/18:00:14.532,40,1731185295,998261815,RU_myo,0.8233196839724416,0.5244855841333821,0.1455107218170584,0.1608918887205394,95.4375,54.3125,32.375,-0.07080078125,1.09716796875,0.16162109375
1969/12/31/18:00:14.558,41,1731185296,21027852,RU_myo,0.8134699386898234,0.5365959504031094,0.1516214697760577,0.1653552985601209,68.5,37.625,22.3125,-0.08251953125,1.0703125,0.13330078125
1969/12/31/18:00:14.581,42,1731185296,42052438,RU_myo,0.807895413073015,0.543846186950783,0.1527774417438619,0.1679147991359825,37.25,11.6875,16.0625,-0.009765625,0.978515625,0.1845703125
1969/12/31/18:00:14.600,43,1731185296,58449509,RU_myo,0.8062174464458811,0.5461866831312647,0.1502196498866833,0.1706680784571989,0.75,-1.6875,17.25,0.04638671875,1.0244140625,0.23779296875
1969/12/31/18:00:14.625,44,1731185296,80915409,RU_myo,0.807369096576459,0.5452045641960332,0.1472272065428607,0.1709715611635791,-19.5,-11.6875,4.0,0.01904296875,1.0068359375,0.2666015625
1969/12/31/18:00:14.649,45,1731185296,101890295,RU_myo,0.808866521646368,0.5443307908272192,0.144048067543422,0.1693785539970322,-26.9375,-19.1875,-4.4375,0.01806640625,0.93798828125,0.1142578125
1969/12/31/18:00:14.667,46,1731185296,118224661,RU_myo,0.8100615200651046,0.5436830652716363,0.1401477846484424,0.169019693245443,-23.0,-20.25,8.6875,-0.0419921875,0.8896484375,0.16015625
1969/12/31/18:00:14.700,47,1731185296,148238005,RU_myo,0.8107559645374685,0.5445120800751906,0.1340374989177355,0.1679741334342477,-1.6875,-31.6875,11.25,0.01220703125,0.98193359375,0.421875
1969/12/31/18:00:14.716,48,1731185296,161895851,RU_myo,0.8109319520330075,0.5457280282347675,0.1293975416460918,0.1668129628862117,9.625,-21.25,-2.375,0.1513671875,1.046875,0.5390625
1969/12/31/18:00:14.734,49,1731185296,178305996,RU_myo,0.8116447838707461,0.5450234094293368,0.127878154637077,0.1668214781017334,1.3125,-1.4375,-10.0625,0.17822265625,1.01171875,0.5322265625
1969/12/31/18:00:14.761,50,1731185296,201399911,RU_myo,0.8111230333340373,0.545550280076727,0.1287884415934095,0.1669366766625473,14.25,8.4375,-10.75,0.1171875,0.95458984375,0.52587890625
1969/12/31/18:00:14.783,51,1731185296,221993311,RU_myo,0.8084987645854169,0.5489075486876532,0.1317793169817239,0.1663263727536812,35.75,12.625,-11.125,0.02587890625,0.96240234375,0.50537109375
1969/12/31/18:00:14.802,52,1731185296,238428454,RU_myo,0.8045326788289544,0.5539745537555261,0.136601482074137,0.1648617529411278,51.125,16.8125,-16.1875,-0.01171875,0.97216796875,0.509765625
1969/12/31/18:00:14.808,53,1731185296,243779895,RU_myo,0.7999025382970796,0.5596571059630616,0.1428288393449192,0.1629103300049527,54.9375,21.6875,-21.5625,-0.025390625,0.98193359375,0.443359375
1969/12/31/18:00:14.834,54,1731185296,266314323,RU_myo,0.7947066517116435,0.5657554496709081,0.149785723755789,0.161016601168611,56.3125,25.6875,-24.0625,-0.0126953125,0.9580078125,0.37255859375
1969/12/31/18:00:14.859,55,1731185296,288648633,RU_myo,0.7894684963084344,0.5719892746950934,0.1555254158492261,0.1593097862505809,59.375,21.75,-22.4375,0.0322265625,0.9033203125,0.39453125
1969/12/31/18:00:14.875,56,1731185296,303945886,RU_myo,0.7850822713344736,0.5770617161558166,0.1601050223690191,0.1581517777194543,48.875,18.4375,-17.625,0.01708984375,0.96484375,0.37744140625
1969/12/31/18:00:14.905,57,1731185296,329187128,RU_myo,0.7812800121440862,0.5810770090321641,0.1655337025730282,0.1566832649354585,36.375,19.75,-18.6875,-0.06298828125,1.02734375,0.2841796875
1969/12/31/18:00:14.926,58,1731185296,348694038,RU_myo,0.777197800642973,0.5854772091233328,0.1717611412086174,0.1538769854253463,40.25,17.9375,-24.6875,-0.09716796875,0.97509765625,0.23583984375
1969/12/31/18:00:14.943,59,1731185296,363622566,RU_myo,0.7725557524156085,0.5906019957630898,0.1778642223701574,0.1507023901962658,48.625,17.25,-27.375,-0.06298828125,0.8662109375,0.24365234375
1969/12/31/18:00:14.976,60,1731185296,393694547,RU_myo,0.7661351951590074,0.5981616405798497,0.1831107062999539,0.1473430816693629,64.4375,12.625,-22.4375,-0.0439453125,0.80224609375,0.197265625
1969/12/31/18:00:14.996,61,1731185296,411538313,RU_myo,0.7574949075275638,0.6081322936097596,0.1887938556795128,0.1439911754115651,78.375,14.0,-17.0,-0.09130859375,0.89794921875,0.12451171875
1969/12/31/18:00:15.010,62,1731185296,423634607,RU_myo,0.7478526076523037,0.6188767212689118,0.1950203298603583,0.1402681433549619,85.5,15.0625,-18.75,-0.10546875,0.90869140625,0.09375
1969/12/31/18:00:15.035,63,1731185296,446066345,RU_myo,0.7379651217416537,0.6293762092868644,0.2014907251339288,0.136728029172978,82.0,16.6875,-18.4375,-0.1142578125,0.8994140625,0.00830078125
1969/12/31/18:00:15.056,64,1731185296,464736909,RU_myo,0.7289138880530199,0.6387609980300497,0.2070403540676472,0.1334287187476052,69.625,13.0,-12.375,-0.1748046875,0.9013671875,-0.0634765625
1969/12/31/18:00:15.077,65,1731185296,483738090,RU_myo,0.7215766100832692,0.6465624285748665,0.2108209787876511,0.129764157759857,55.1875,3.25,-10.6875,-0.1826171875,0.94287109375,-0.0947265625
1969/12/31/18:00:15.102,66,1731185296,506065157,RU_myo,0.7151871618827084,0.6534773197163333,0.2135123915904851,0.1260443363734567,51.875,-1.0625,-13.5625,-0.1103515625,0.916015625,-0.04443359375
1969/12/31/18:00:15.123,67,1731185296,524189593,RU_myo,0.7090087991852061,0.6599958803021378,0.2155225611159575,0.1235394119792404,49.1875,1.0625,-7.625,-0.08740234375,0.80810546875,-0.0498046875
1969/12/31/18:00:15.145,68,1731185296,543656021,RU_myo,0.7032301581423535,0.6662405326034014,0.2163832055042655,0.1215286212014083,38.9375,-3.0,-0.875,-0.10693359375,0.861328125,-0.14306640625
1969/12/31/18:00:15.169,69,1731185296,566087205,RU_myo,0.6990784509284911,0.6707564041956857,0.2168711897449514,0.1197583096762158,31.6875,-3.625,2.8125,-0.18505859375,0.9716796875,-0.0673828125
1969/12/31/18:00:15.189,70,1731185296,584035236,RU_myo,0.6938074651895199,0.6768391819729556,0.2169254624160775,0.1160313179665063,52.0,-11.4375,-1.125,-0.16162109375,0.8212890625,0.0341796875
1969/12/31/18:00:15.212,71,1731185296,603747252,RU_myo,0.6904705957488019,0.6810706247670731,0.2164434876701955,0.1120061477368327,33.6875,-16.25,-6.375,-0.14111328125,0.9189453125,-0.029296875
1969/12/31/18:00:15.238,72,1731185296,626265366,RU_myo,0.6898719003148307,0.6823640040364088,0.216141957088552,0.1083456576764134,9.0,-16.0,-3.3125,-0.2978515625,1.21533203125,-0.0712890625
1969/12/31/18:00:15.256,73,1731185296,642554358,RU_myo,0.6918839905484993,0.6811410190146187,0.2160191832863819,0.1033400614026121,-4.4375,-21.125,-12.5625,-0.32177734375,1.14990234375,0.00537109375
1969/12/31/18:00:15.290,74,1731185296,674158233,RU_myo,0.6965110533163735,0.6769787128500481,0.2166258634843405,0.0982110494072425,-21.875,-20.25,-31.625,-0.171875,1.08203125,0.07275390625
1969/12/31/18:00:15.304,75,1731185296,686095349,RU_myo,0.7023856312827363,0.670889065214961,0.2182785276324902,0.0944286583466058,-32.0,-10.0625,-37.375,-0.12744140625,1.09619140625,0.14306640625
1969/12/31/18:00:15.323,76,1731185296,702626112,RU_myo,0.7081115173134721,0.6641025177459337,0.2214488910277801,0.0922296787053406,-34.5625,2.6875,-33.875,-0.193359375,1.072265625,0.171875
1969/12/31/18:00:15.346,77,1731185296,723571375,RU_myo,0.7138900897023089,0.6566983135351523,0.2254711004925042,0.0909453004152223,-32.5625,11.125,-31.625,-0.21923828125,0.96044921875,0.25927734375
1969/12/31/18:00:15.373,78,1731185296,747745272,RU_myo,0.7197616752573992,0.6485301729655586,0.2300527267677355,0.09180135342496,-42.125,21.375,-28.25,-0.19287109375,0.93212890625,0.22998046875
1969/12/31/18:00:15.390,79,1731185296,762719071,RU_myo,0.7262909142190997,0.6385183001635434,0.2360949034540279,0.0951582095358918,-51.8125,37.0625,-23.875,-0.234375,0.93603515625,0.28515625
1969/12/31/18:00:15.414,80,1731185296,783765552,RU_myo,0.7319848795306387,0.6284009618719084,0.2436694162013267,0.0996773939520958,-55.1875,47.75,-21.6875,-0.2861328125,0.93603515625,0.23388671875
1969/12/31/18:00:15.440,81,1731185296,806190418,RU_myo,0.7379527877602691,0.6169138813807311,0.2522712052781796,0.1058403750187184,-61.6875,59.0,-20.5625,-0.26513671875,0.796875,0.26611328125
1969/12/31/18:00:15.458,82,1731185296,822699296,RU_myo,0.7424827712275721,0.6066091565652426,0.2600887116245219,0.1144487994123395,-58.75,65.5625,-10.0625,-0.18701171875,0.8076171875,0.2333984375
1969/12/31/18:00:15.481,83,1731185296,843730732,RU_myo,0.7467028778106125,0.5961781253638725,0.2671112395405248,0.1251320934776224,-65.375,69.3125,0.0625,-0.20361328125,0.91455078125,0.21435546875
1969/12/31/18:00:15.516,84,1731185296,875107060,RU_myo,0.7482745127419128,0.5881087307503328,0.2756511705312405,0.1350178009776581,-41.0,75.375,0.375,-0.2041015625,0.7138671875,0.2353515625
1969/12/31/18:00:15.526,85,1731185296,884063321,RU_myo,0.7464715991865131,0.5844685225456588,0.284024233462658,0.1432024181610564,-12.5625,69.4375,7.375,-0.23876953125,0.61376953125,0.15185546875
1969/12/31/18:00:15.548,86,1731185296,903574372,RU_myo,0.7423493844252546,0.5844429662778994,0.290726041606437,0.1510701139987259,-2.0625,58.75,17.5625,-0.2685546875,0.83056640625,-0.001953125
1969/12/31/18:00:15.574,87,1731185296,926233080,RU_myo,0.7383801547448053,0.5848078252963528,0.2957915375624805,0.1590657752554321,-5.3125,51.9375,18.75,-0.2158203125,0.96533203125,-0.01806640625
1969/12/31/18:00:15.602,88,1731185296,951585629,RU_myo,0.7341056476701433,0.586088170693333,0.2999413945831117,0.1662068411578781,7.1875,47.4375,17.6875,-0.14404296875,0.8349609375,0.05126953125
1969/12/31/18:00:15.616,89,1731185296,963804117,RU_myo,0.7298901005591972,0.5880992740331046,0.3021371464933957,0.1735304863597422,1.4375,37.0,26.0,-0.14599609375,0.88232421875,-0.041015625
1969/12/31/18:00:15.640,90,1731185296,986213874,RU_myo,0.7264761623019931,0.5896896491345618,0.3025661516157771,0.181527483337769,-6.5625,31.125,31.3125,-0.15234375,1.0869140625,-0.02734375
1969/12/31/18:00:15.661,91,1731185297,3970432,RU_myo,0.7221670612080952,0.5923344740058621,0.3042855887179743,0.1871493711152075,20.9375,32.5625,18.0625,-0.09765625,0.97900390625,0.16259765625
1969/12/31/18:00:15.686,92,1731185297,26451800,RU_myo,0.7177810216667477,0.5952717512793709,0.306303696464303,0.1913635090505361,16.3125,26.5625,16.5625,-0.14111328125,0.91650390625,0.0185546875
1969/12/31/18:00:15.709,93,1731185297,46331741,RU_myo,0.7151611558174976,0.5968730001484432,0.306157579378729,0.1963534555146274,-8.75,16.1875,22.75,-0.1611328125,1.04833984375,-0.1162109375
1969/12/31/18:00:15.728,94,1731185297,63942127,RU_myo,0.7131796058662403,0.5984873361450261,0.3048897750172775,0.2005741342756304,0.5625,10.9375,17.9375,-0.08203125,1.02783203125,0.046875
1969/12/31/18:00:15.754,95,1731185297,86670113,RU_myo,0.7093864716684488,0.6021422769754988,0.3042756462972997,0.2039898114193732,26.5,13.625,17.25,-0.02392578125,0.87353515625,0.15771484375
1969/12/31/18:00:15.775,96,1731185297,106058361,RU_myo,0.7045737994194176,0.6067892350366828,0.3039134494766767,0.2074107052263,24.8125,12.75,24.0625,-0.10205078125,0.9501953125,0.01416015625
1969/12/31/18:00:15.795,97,1731185297,124088326,RU_myo,0.7008184503379136,0.610606843509884,0.302984043500906,0.2102699496093113,15.1875,6.9375,24.875,-0.1669921875,1.05126953125,-0.03076171875
1969/12/31/18:00:15.818,98,1731185297,143814802,RU_myo,0.6966216497530983,0.615075472230086,0.3022579873457761,0.212227589257121,33.375,7.0625,18.75,-0.078125,0.89013671875,0.12890625
1969/12/31/18:00:15.846,99,1731185297,169112636,RU_myo,0.6920641853501018,0.6193052764651732,0.3021447978023465,0.2149806015878513,28.1875,12.125,19.5,-0.0673828125,0.880859375,0.04931640625
1969/12/31/18:00:15.863,100,1731185297,184229902,RU_myo,0.6893829859559439,0.6212015803146487,0.3013532673689122,0.2191937579748357,-3.0,12.625,20.3125,-0.0947265625,1.18310546875,-0.11279296875
1969/12/31/18:00:15.889,101,1731185297,208004501,RU_myo,0.689930900366105,0.6198574089372553,0.3003149632664988,0.2226725581293064,-20.3125,8.4375,11.125,-0.1064453125,1.130859375,-0.0234375
1969/12/31/18:00:15.913,102,1731185297,228973184,RU_myo,0.6898550303444366,0.6194778537396644,0.2992708559351241,0.2253534570900424,-5.375,6.25,12.0625,-0.087890625,0.81494140625,0.07421875
1969/12/31/18:00:15.930,103,1731185297,244037047,RU_myo,0.6885140215318789,0.620761311966242,0.297379460363769,0.2284059812564087,0.5,3.8125,20.125,-0.07763671875,0.88037109375,0.01904296875
1969/12/31/18:00:15.952,104,1731185297,263606960,RU_myo,0.6859998674517792,0.6233144093262363,0.2965809552405192,0.2300501379505077,7.0625,2.875,15.5625,-0.1181640625,1.12109375,-0.06494140625
1969/12/31/18:00:15.978,105,1731185297,286247747,RU_myo,0.6847197417479463,0.6246587481769016,0.2960933737938391,0.2308441846399298,5.0,1.0625,6.25,-0.09423828125,1.14111328125,0.01318359375
1969/12/31/18:00:15.997,106,1731185297,304021121,RU_myo,0.6830004001612863,0.6264804385393603,0.2960278767455083,0.2310848538883494,20.0625,2.1875,2.75,-0.048828125,0.8544921875,0.1376953125
1969/12/31/18:00:16.020,107,1731185297,323704724,RU_myo,0.6806409430038373,0.6286971314626064,0.2956097289003304,0.2325569000847117,15.375,4.875,9.8125,-0.0400390625,0.94189453125,0.05517578125
1969/12/31/18:00:16.044,108,1731185297,346128528,RU_myo,0.6792479382066763,0.6298669549204432,0.2953092671678558,0.2338424560810367,2.5625,3.6875,11.5625,-0.1484375,1.15576171875,-0.0263671875
1969/12/31/18:00:16.064,109,1731185297,364054354,RU_myo,0.6793575539224471,0.6298553997237855,0.2951817727555215,0.2337160893053953,-5.5,-1.75,1.375,-0.14306640625,1.1064453125,-0.03466796875
1969/12/31/18:00:16.090,110,1731185297,386611290,RU_myo,0.6802900712743843,0.6293217258715929,0.2944566445785222,0.2333556700297865,-6.875,-5.25,-3.0,-0.06103515625,0.84765625,0.01123046875
1969/12/31/18:00:16.107,111,1731185297,401436514,RU_myo,0.6804552224464551,0.629793414531981,0.292434604479814,0.2341430062167744,-1.1875,-5.375,5.8125,-0.02001953125,0.88134765625,0.0517578125
1969/12/31/18:00:16.132,112,1731185297,423946860,RU_myo,0.6803867708453754,0.6303358914972811,0.2905392508499136,0.2352391329360434,-3.25,-4.125,10.0625,-0.07763671875,1.0439453125,0.0234375
1969/12/31/18:00:16.154,113,1731185297,443551620,RU_myo,0.6814190353682944,0.6292932868727261,0.2894382896557194,0.2363969835167864,-10.625,-0.5625,7.5,-0.1298828125,1.0478515625,0.0517578125
1969/12/31/18:00:16.174,114,1731185297,462001537,RU_myo,0.6828406881147764,0.6279668364463055,0.2887133686227668,0.2367083390103783,-13.5625,-2.3125,-1.4375,-0.08984375,1.09765625,0.0234375
1969/12/31/18:00:16.200,115,1731185297,484902209,RU_myo,0.684725198367228,0.626067602037142,0.2885270112927337,0.2365225658471214,-8.0,-1.4375,-6.3125,-0.09521484375,1.01318359375,0.138671875
1969/12/31/18:00:16.241,116,1731185297,520824827,RU_myo,0.6857503538590376,0.6251406430106153,0.2881555336509583,0.2364572203693735,-6.0,-1.875,-2.75,-0.0810546875,0.9384765625,0.07763671875
1969/12/31/18:00:16.243,117,1731185297,522996160,RU_myo,0.6868751685578198,0.6238215784822642,0.2882275434044277,0.2365883011934692,-9.0625,0.5625,-1.9375,-0.11962890625,0.92333984375,0.05322265625
1969/12/31/18:00:16.266,118,1731185297,543985351,RU_myo,0.6874041205628931,0.6233147646233587,0.2882189892823638,0.2363981671941116,-3.3125,-0.875,-0.5,-0.1171875,0.91845703125,0.0595703125
1969/12/31/18:00:16.292,119,1731185297,566696724,RU_myo,0.6879546881532083,0.6224613530109501,0.288097429516737,0.2371920786233136,-6.4375,2.5,0.25,-0.08447265625,0.9921875,0.0634765625
1969/12/31/18:00:16.309,120,1731185297,581809646,RU_myo,0.689433158802112,0.6202151683566409,0.2880420607691161,0.2388447941914709,-16.6875,6.5,-0.5,-0.083984375,0.99951171875,0.06787109375
1969/12/31/18:00:16.334,121,1731185297,604108001,RU_myo,0.6916928955349395,0.6169202343074156,0.2879205249063104,0.2409816053275627,-23.75,8.0,0.625,-0.09814453125,0.96728515625,0.08349609375
1969/12/31/18:00:16.358,122,1731185297,625259574,RU_myo,0.6924315346805288,0.6152776683338972,0.2878620519705019,0.2431201342236024,-8.75,8.6875,4.75,-0.091796875,0.89599609375,0.12890625
1969/12/31/18:00:16.383,123,1731185297,648025203,RU_myo,0.6914250352653994,0.6154342011459236,0.2887651696540082,0.2445134791025062,7.0625,10.1875,3.875,-0.09326171875,0.9609375,0.1298828125
1969/12/31/18:00:16.401,124,1731185297,664106290,RU_myo,0.6902843726861577,0.6157563667572693,0.2901770189893,0.2452526845391265,4.0625,9.625,-0.625,-0.099609375,1.078125,0.0517578125
1969/12/31/18:00:16.426,125,1731185297,686022614,RU_myo,0.6909188972282101,0.6144349871454337,0.2907365233234353,0.2461158223892696,-11.6875,5.625,-1.625,-0.10546875,1.0400390625,0.02783203125
1969/12/31/18:00:16.442,126,1731185297,700852640,RU_myo,0.6919885728023782,0.6131884274828167,0.2904191258175633,0.2465937932540891,-8.5,0.8125,-1.5625,-0.078125,0.939453125,0.0966796875
1969/12/31/18:00:16.468,127,1731185297,723210725,RU_myo,0.6921223326846194,0.6127715052315809,0.2903019502820398,0.2473914643593582,-1.0,2.6875,0.5625,-0.06298828125,0.9287109375,0.1142578125
1969/12/31/18:00:16.492,128,1731185297,744339418,RU_myo,0.692601124877312,0.61196958473781,0.2905421128418088,0.2477542932825424,-2.5,2.875,-1.5625,-0.1005859375,1.00927734375,0.1181640625
1969/12/31/18:00:16.510,129,1731185297,760810407,RU_myo,0.6939402849870913,0.6105014276049685,0.2905405714256799,0.247630902998736,-11.9375,-0.8125,-2.9375,-0.1298828125,1.00439453125,0.06689453125
1969/12/31/18:00:16.551,130,1731185297,797699923,RU_myo,0.6957610843366447,0.6086002080814708,0.2894986247046851,0.2484207047328839,-17.375,-1.875,-0.6875,-0.068359375,0.91796875,0.07275390625
1969/12/31/18:00:16.559,131,1731185297,804409036,RU_myo,0.6968324478671385,0.6074088725232915,0.2884139204775954,0.2495924911815635,-11.125,0.25,3.4375,-0.06982421875,0.91162109375,0.1025390625
1969/12/31/18:00:16.577,132,1731185297,820650448,RU_myo,0.6974923700171408,0.6062391020399267,0.287798768235829,0.2512974610449434,-10.125,3.875,6.75,-0.1044921875,0.94677734375,0.10400390625
1969/12/31/18:00:16.602,133,1731185297,843239431,RU_myo,0.6978023408186919,0.6055107785970454,0.2876176198335965,0.2523978900704418,-9.0,3.1875,4.9375,-0.11669921875,0.99560546875,0.05908203125
1969/12/31/18:00:16.628,134,1731185297,865778293,RU_myo,0.698153611413696,0.6047653420079472,0.2878556068741904,0.2529418224950477,-6.0625,3.125,0.4375,-0.111328125,1.01025390625,0.08642578125
1969/12/31/18:00:16.644,135,1731185297,880721313,RU_myo,0.6983175241943487,0.6041383493117439,0.2884580560565065,0.2533010860420022,-1.25,4.3125,-2.9375,-0.08349609375,0.986328125,0.12451171875
1969/12/31/18:00:16.670,136,1731185297,903420231,RU_myo,0.6979303016301229,0.6041119639000636,0.2893291612495,0.2534376956767772,1.375,4.75,-3.625,-0.0732421875,0.98388671875,0.08837890625
1969/12/31/18:00:16.703,137,1731185297,933052770,RU_myo,0.6974856512096836,0.6040969187032676,0.2905427233532943,0.2533093071252461,1.0625,4.8125,-4.1875,-0.1044921875,1.02197265625,0.07373046875
1969/12/31/18:00:16.712,138,1731185297,940587543,RU_myo,0.696975171159795,0.6043218468914204,0.2915711001515317,0.2529960665957921,9.4375,4.1875,-4.1875,-0.0908203125,0.97265625,0.16357421875
1969/12/31/18:00:16.738,139,1731185297,963502565,RU_myo,0.6958541151258752,0.6050268411515505,0.2929301665341294,0.2528269951624013,12.6875,6.25,-3.5625,-0.0830078125,0.92822265625,0.1455078125
1969/12/31/18:00:16.762,140,1731185297,986039494,RU_myo,0.6947539562772622,0.6054528634962365,0.2943945116082618,0.2531316690108774,6.6875,7.75,0.125,-0.1201171875,0.95166015625,0.0830078125
1969/12/31/18:00:16.786,141,1731185298,6757870,RU_myo,0.6939532677588447,0.6058128403999061,0.2954901723300701,0.2531900918870338,4.8125,5.125,0.0,-0.130859375,0.9697265625,0.07470703125
1969/12/31/18:00:16.805,142,1731185298,23393563,RU_myo,0.6929169459063172,0.6065464844495309,0.2964673719403614,0.2531295432235286,8.375,4.25,-0.625,-0.1015625,0.9541015625,0.09375
1969/12/31/18:00:16.847,143,1731185298,62077342,RU_myo,0.6918293667168354,0.6072887214986584,0.2973267024243607,0.2533167347692665,8.4375,5.0625,-0.6875,-0.08251953125,0.947265625,0.09228515625
1969/12/31/18:00:16.853,144,1731185298,66868039,RU_myo,0.6915582196877187,0.6073260623029832,0.2976813272212713,0.2535510012870947,1.9375,2.75,-1.25,-0.0869140625,0.98974609375,0.09619140625
1969/12/31/18:00:16.889,145,1731185298,98357305,RU_myo,0.6926546433029767,0.6064695572663357,0.2968258310171286,0.2536112128061216,-9.375,-3.6875,-1.125,-0.08251953125,0.99462890625,0.076171875
1969/12/31/18:00:16.897,146,1731185298,105712605,RU_myo,0.6947407214186558,0.6048919828904304,0.2942668263889773,0.2546528105568997,-20.9375,-7.8125,4.0,-0.05859375,1.00146484375,0.0712890625
1969/12/31/18:00:16.920,147,1731185298,126813165,RU_myo,0.6972388415255368,0.6023855490690294,0.2915792651639227,0.2568485551203238,-26.6875,-3.5625,7.75,-0.05908203125,0.9658203125,0.095703125
1969/12/31/18:00:16.938,148,1731185298,143176833,RU_myo,0.6996733399726498,0.5996328092027664,0.2897452102285761,0.2587381390686611,-31.0625,-1.0625,4.0,-0.06689453125,0.9736328125,0.02734375
1969/12/31/18:00:16.964,149,1731185298,165859767,RU_myo,0.7013930631083382,0.5978718173480264,0.2883457340635096,0.2597186914564423,-27.875,-3.375,1.875,-0.0771484375,0.9765625,-0.04150390625
1969/12/31/18:00:17.016,150,1731185298,211307587,RU_myo,0.7029260605456394,0.5970232544457189,0.2860291350917737,0.2600875255283926,-23.5625,-10.125,2.75,-0.0478515625,0.93994140625,-0.03857421875
1969/12/31/18:00:17.018,151,1731185298,213723419,RU_myo,0.7047787153344407,0.5963700024958848,0.2828637248276284,0.2600344125519416,-24.6875,-15.5625,3.5,-0.03369140625,0.9208984375,-0.041015625
1969/12/31/18:00:17.039,152,1731185298,233228388,RU_myo,0.7082255774473989,0.5943284019309939,0.2787001625980198,0.2598393762986793,-39.3125,-20.6875,0.125,-0.01953125,1.00537109375,-0.05126953125
1969/12/31/18:00:17.055,153,1731185298,246855879,RU_myo,0.7139862446926764,0.590135847968607,0.2738259633830338,0.2588100946821363,-54.3125,-26.25,-9.8125,0.00927734375,1.06201171875,-0.01025390625
1969/12/31/18:00:17.074,154,1731185298,263358992,RU_myo,0.7213775402360149,0.5842804040564507,0.2683343769569742,0.2573470730779352,-66.375,-30.0625,-15.0,0.015625,1.0,0.009765625
1969/12/31/18:00:17.117,155,1731185298,301558306,RU_myo,0.7308950841155165,0.576524475486141,0.2609467583592645,0.2555752227485943,-87.625,-40.125,-14.375,-0.0068359375,0.994140625,-0.025390625
1969/12/31/18:00:17.122,156,1731185298,306762390,RU_myo,0.7443778341239098,0.5646772729381131,0.2515441619044389,0.2525207953891443,-108.25,-52.3125,-20.0625,-0.04150390625,1.013671875,-0.03369140625
1969/12/31/18:00:17.140,157,1731185298,323263840,RU_myo,0.7593647018485529,0.5517769395314619,0.240853075596366,0.2467736909873562,-115.6875,-67.625,-30.8125,-0.0546875,0.98291015625,-0.0283203125
1969/12/31/18:00:17.166,158,1731185298,345966498,RU_myo,0.7747019083398701,0.5393981062085906,0.2288947491549411,0.2376843075224908,-111.875,-84.6875,-41.75,-0.037109375,0.94189453125,-0.0029296875
1969/12/31/18:00:17.190,159,1731185298,366803557,RU_myo,0.7900769079185874,0.5277352399462382,0.2149761178684537,0.2259629722739965,-107.6875,-102.5,-46.5625,-0.02685546875,0.84716796875,0.02294921875
1969/12/31/18:00:17.209,160,1731185298,384095547,RU_myo,0.8044241009853105,0.5177881211517101,0.1988018284322904,0.2127796051320124,-96.625,-117.8125,-42.75,0.0068359375,0.7470703125,0.08984375
1969/12/31/18:00:17.233,161,1731185298,405611847,RU_myo,0.8165167472240306,0.5112004005383312,0.1806139683812444,0.1983762748357703,-74.625,-131.75,-36.75,0.04443359375,0.71435546875,0.1708984375
1969/12/31/18:00:17.257,162,1731185298,426691949,RU_myo,0.8270766014340555,0.506744645395242,0.1603490946101301,0.1828724352691092,-60.5,-145.1875,-32.3125,0.080078125,0.66259765625,0.1982421875
1969/12/31/18:00:17.275,163,1731185298,443237618,RU_myo,0.8361636645642887,0.5043594685958622,0.1375803270259075,0.1659020979842132,-47.6875,-161.625,-28.625,0.1328125,0.67236328125,0.22119140625
1969/12/31/18:00:17.309,164,1731185298,473232368,RU_myo,0.8437398245323854,0.5035703937200448,0.1126166516864827,0.1477750209934822,-36.75,-176.4375,-24.8125,0.10693359375,0.6376953125,0.23291015625
1969/12/31/18:00:17.324,165,1731185298,486703641,RU_myo,0.8500016577392137,0.5035554844426621,0.0841090251590288,0.1298257594435808,-31.75,-192.0625,-13.0,0.2021484375,0.591796875,0.26171875
1969/12/31/18:00:17.351,166,1731185298,510775059,RU_myo,0.854326740953747,0.5047711758010637,0.0527965014592406,0.1120018267950365,-21.1875,-204.9375,-3.0,0.275390625,0.615234375,0.34423828125
1969/12/31/18:00:17.368,167,1731185298,525749236,RU_myo,0.8566530007598803,0.50678944533732,0.0177007032575963,0.0948513546976027,-13.6875,-221.125,12.125,0.337890625,0.63818359375,0.3798828125
1969/12/31/18:00:17.392,168,1731185298,546862907,RU_myo,0.8588549753702615,0.5055714420433427,-0.0207526609072481,0.0795925583030929,-31.3125,-230.25,30.5,0.4169921875,0.60693359375,0.34912109375
1969/12/31/18:00:17.409,169,1731185298,562704245,RU_myo,0.8617859667765141,0.498980117458602,-0.0632957041962777,0.0658592717722118,-62.6875,-242.6875,49.5,0.49853515625,0.619140625,0.32177734375
1969/12/31/18:00:17.435,170,1731185298,585706926,RU_myo,0.864107028502541,0.4881774397092125,-0.1098063533429449,0.0542622835585758,-81.625,-255.0625,73.0,0.5947265625,0.6728515625,0.40625
1969/12/31/18:00:17.469,171,1731185298,615805083,RU_myo,0.8650768659064865,0.4739520118368636,-0.1586350648762406,0.0429700214208824,-93.0625,-265.3125,82.75,0.7431640625,0.66357421875,0.548828125
1969/12/31/18:00:17.477,172,1731185298,622663705,RU_myo,0.8649714861001233,0.4566873656764605,-0.2057595709296108,0.0303969938661958,-107.0,-260.3125,74.75,0.81640625,0.640625,0.51611328125
1969/12/31/18:00:17.503,173,1731185298,645764948,RU_myo,0.8631246735139162,0.4378186325659656,-0.2509842767476998,0.0183721467171832,-107.9375,-252.1875,75.25,0.77734375,0.50537109375,0.5283203125
