time,.header.seq,.header.stamp.secs,.header.stamp.nsecs,.header.frame_id,.orientation.x,.orientation.y,.orientation.z,.orientation.w,.angular_velocity.x,.angular_velocity.y,.angular_velocity.z,.linear_acceleration.x,.linear_acceleration.y,.linear_acceleration.z
1969/12/31/18:00:39.741,1,1730345478,861653176,RU_myo,-0.6325767003744563,-0.4676575336037326,0.6173177101106958,-0.00787363897610043,10.3125,-12.75,3.375,0.7568359375,0.5927734375,-0.23974609375
1969/12/31/18:00:39.763,2,1730345478,883977203,RU_myo,-0.6306671139154459,-0.4682549209289946,0.6188264654977941,-0.007079975342513474,4.25,-13.1875,2.1875,0.779296875,0.6318359375,-0.22265625
1969/12/31/18:00:39.778,3,1730345478,899077579,RU_myo,-0.6302468176340722,-0.46673420631878265,0.6204201918700701,-0.005187970123852037,-10.75,-12.5625,4.125,0.79736328125,0.6123046875,-0.2060546875
1969/12/31/18:00:39.801,4,1730345478,921620207,RU_myo,-0.6306579810162232,-0.46385373615825953,0.622174340315434,-0.003051669316830655,-19.0625,-11.0625,6.0,0.806640625,0.57666015625,-0.19873046875
1969/12/31/18:00:39.823,5,1730345478,944144913,RU_myo,-0.6310407349947924,-0.4611803649889401,0.6237775714911286,-0.0013427697233664216,-17.0,-9.5,5.1875,0.79345703125,0.53662109375,-0.19775390625
1969/12/31/18:00:39.844,6,1730345478,965039645,RU_myo,-0.6310934334152543,-0.45946531593327217,0.6249900152971183,-0.0004272392682695145,-10.125,-6.9375,3.125,0.7880859375,0.533203125,-0.201171875
1969/12/31/18:00:39.861,7,1730345478,981688554,RU_myo,-0.6311560816729315,-0.4587951132323204,0.62541885396988,-0.0005493090353985478,-1.625,-2.375,2.875,0.787109375,0.5556640625,-0.1796875
1969/12/31/18:00:39.883,8,1730345479,4124825,RU_myo,-0.631338214545285,-0.4587944082305595,0.6252347901973995,-0.0010986163826194055,2.375,1.8125,2.5,0.779296875,0.587890625,-0.18212890625
1969/12/31/18:00:39.904,9,1730345479,25221333,RU_myo,-0.631649793037231,-0.4591042364698088,0.624691818700943,-0.0014038018397774,1.25,4.8125,-0.1875,0.7880859375,0.603515625,-0.21630859375
1969/12/31/18:00:39.921,10,1730345479,41691657,RU_myo,-0.6319968381022372,-0.459151348434875,0.6243066786043249,-0.0010985942139874717,-3.4375,3.5,-2.5625,0.81103515625,0.58642578125,-0.24169921875
1969/12/31/18:00:39.943,11,1730345479,64146513,RU_myo,-0.6321319128520391,-0.4583673520825349,0.6247467664336653,-0.0003051713396022203,-9.125,0.1875,-1.75,0.81884765625,0.55126953125,-0.26513671875
1969/12/31/18:00:39.958,12,1730345479,78433396,RU_myo,-0.6314165278420453,-0.4571589940586679,0.6263505470000067,0.001953149240304055,-14.625,-9.125,-0.6875,0.7861328125,0.56201171875,-0.29833984375
1969/12/31/18:00:39.981,13,1730345479,101589480,RU_myo,-0.6301476207026573,-0.45668001725080215,0.6279502830093896,0.0059816414983398306,-17.5,-14.125,-7.25,0.78466796875,0.60595703125,-0.3291015625
1969/12/31/18:00:40.003,14,1730345479,124072033,RU_myo,-0.6291279326721464,-0.45652667213694753,0.6290058667170295,0.011535232758540518,-22.1875,-15.25,-13.4375,0.78271484375,0.650390625,-0.333984375
1969/12/31/18:00:40.024,15,1730345479,145187330,RU_myo,-0.629454085604148,-0.4552601594610045,0.629454085604148,0.017700153672568886,-30.875,-11.3125,-13.1875,0.80615234375,0.68408203125,-0.31005859375
1969/12/31/18:00:40.041,16,1730345479,161675709,RU_myo,-0.6328044743494267,-0.4514102905370717,0.6286541363617953,0.024108580957563998,-44.875,-2.6875,-8.9375,0.85986328125,0.70361328125,-0.21044921875
1969/12/31/18:00:40.063,17,1730345479,184050571,RU_myo,-0.6398630021637461,-0.4457801762499048,0.6252152417174185,0.03100442627806019,-58.0,12.375,-10.1875,0.8974609375,0.75341796875,-0.0830078125
1969/12/31/18:00:40.084,18,1730345479,205204517,RU_myo,-0.6502428916753265,-0.43876442164951396,0.6189941249644416,0.03893889289364166,-72.9375,27.9375,-15.5625,0.90625,0.77490234375,0.01123046875
1969/12/31/18:00:40.101,19,1730345479,221627438,RU_myo,-0.6632447655357671,-0.43070933195784555,0.6102681890670962,0.04656811963778322,-81.0625,44.375,-19.125,0.9111328125,0.73291015625,0.10693359375
1969/12/31/18:00:40.123,20,1730345479,244101949,RU_myo,-0.6775476778008417,-0.42468036592543523,0.5982023952910593,0.05224581679105671,-69.9375,66.375,-25.125,0.87060546875,0.751953125,0.1640625
1969/12/31/18:00:40.144,21,1730345479,265267997,RU_myo,-0.691905550359865,-0.42188171877976244,0.5832002058652532,0.05621427416032425,-54.5625,86.25,-36.6875,0.8955078125,0.7890625,0.15966796875
1969/12/31/18:00:40.161,22,1730345479,281763027,RU_myo,-0.704808776274131,-0.4225923074923868,0.566813223524234,0.058164423604888014,-37.8125,100.625,-45.8125,0.92529296875,0.81640625,0.20947265625
1969/12/31/18:00:40.191,23,1730345479,311652805,RU_myo,-0.718091045905003,-0.42456789760435193,0.5482272651354643,0.05944927145868873,-32.9375,113.9375,-52.6875,0.9189453125,0.81396484375,0.1943359375
1969/12/31/18:00:40.204,24,1730345479,325225006,RU_myo,-0.7323842180025006,-0.42521007056861854,0.5281710852161368,0.06200853045754506,-45.125,119.6875,-57.625,0.8828125,0.73779296875,0.2470703125
1969/12/31/18:00:40.221,25,1730345479,341548112,RU_myo,-0.7485911396582652,-0.4249238902813569,0.5048183706574408,0.06487993326186188,-55.125,137.4375,-63.875,0.85009765625,0.74365234375,0.3515625
1969/12/31/18:00:40.243,26,1730345479,364177311,RU_myo,-0.7683169639625653,-0.4198033109417322,0.4783975503287724,0.06774958929126529,-85.25,159.0625,-57.375,0.8125,0.61083984375,0.4267578125
1969/12/31/18:00:40.264,27,1730345479,385212251,RU_myo,-0.7910502976996977,-0.41276700589021337,0.44633522313694074,0.06817399757199,-96.0625,197.75,-53.4375,0.80224609375,0.6650390625,0.52099609375
1969/12/31/18:00:40.281,28,1730345479,401625353,RU_myo,-0.8157098683762323,-0.40275865480095446,0.40989954927158817,0.06622111539006449,-109.5,227.9375,-46.75,0.82177734375,0.5400390625,0.54345703125
1969/12/31/18:00:40.303,29,1730345479,424173608,RU_myo,-0.8408372420121464,-0.38798013700161244,0.37241698851405364,0.06139814658229072,-127.0625,240.0,-24.375,0.81201171875,0.5087890625,0.58935546875
1969/12/31/18:00:40.324,30,1730345479,445128969,RU_myo,-0.8649442713625413,-0.3707688716149759,0.33378353232301283,0.054684594068645,-133.625,247.25,-12.375,0.779296875,0.5830078125,0.64208984375
1969/12/31/18:00:40.347,31,1730345479,467774046,RU_myo,-0.8875996863723331,-0.3522201602182998,0.29295733305282257,0.04778866495424169,-139.3125,256.5,-12.75,0.72900390625,0.65771484375,0.64794921875
1969/12/31/18:00:40.369,32,1730345479,490079623,RU_myo,-0.9081733346389949,-0.33171519312922965,0.25212796003989835,0.0402208486241329,-144.5,254.6875,-6.1875,0.66064453125,0.63330078125,0.65625
1969/12/31/18:00:40.384,33,1730345479,505245208,RU_myo,-0.9257688535233417,-0.31103099139998347,0.2127657056554832,0.030700272502784866,-136.4375,247.375,5.4375,0.65185546875,0.54443359375,0.6826171875
1969/12/31/18:00:40.400,34,1730345479,520971513,RU_myo,-0.939625890405446,-0.2931486295301953,0.1755962121920408,0.018249310895175598,-110.125,237.9375,19.8125,0.66015625,0.42041015625,0.7314453125
1969/12/31/18:00:40.423,35,1730345479,544133219,RU_myo,-0.948987794293242,-0.2819071722837793,0.14122823049678834,0.0022581869180558207,-62.4375,225.625,36.5625,0.62109375,0.384765625,0.73388671875
1969/12/31/18:00:40.452,36,1730345479,572718464,RU_myo,-0.953709350426727,-0.2796554616443916,0.10943305166486123,-0.015990774978356742,-4.5,211.75,46.0625,0.56787109375,0.376953125,0.69384765625
1969/12/31/18:00:40.460,37,1730345479,580819951,RU_myo,-0.9542678622096988,-0.28606673937811694,0.07897810129193159,-0.036071142089282505,50.25,203.625,53.1875,0.4951171875,0.3583984375,0.64990234375
1969/12/31/18:00:40.483,38,1730345479,604134887,RU_myo,-0.9510981661994985,-0.2997396582304907,0.048583336988692855,-0.05663987025817459,96.5625,200.9375,53.375,0.45556640625,0.330078125,0.6103515625
1969/12/31/18:00:40.504,39,1730345479,625179680,RU_myo,-0.9442338358971704,-0.3195661796107287,0.018920075569008002,-0.07708404981824873,135.6875,192.9375,54.1875,0.37841796875,0.3671875,0.548828125
1969/12/31/18:00:40.527,40,1730345479,647558608,RU_myo,-0.9344224692562509,-0.34227571571450394,-0.010863958166401871,-0.09789769044330676,154.375,192.25,56.6875,0.3154296875,0.53857421875,0.46630859375
1969/12/31/18:00:40.543,41,1730345479,664019668,RU_myo,-0.923711314854444,-0.3617945605852094,-0.041562431808118694,-0.11888930567138797,137.25,198.75,56.75,0.26806640625,0.7265625,0.44873046875
1969/12/31/18:00:40.564,42,1730345479,685193724,RU_myo,-0.9142047007865698,-0.37480012467656887,-0.07116380807244412,-0.13671263300366623,99.0,189.6875,40.0,0.18603515625,0.88671875,0.44970703125
1969/12/31/18:00:40.580,43,1730345479,701023466,RU_myo,-0.9074931334800321,-0.37950045759491824,-0.09844551915416583,-0.1508114555672311,48.3125,173.75,20.75,0.083984375,0.92822265625,0.37158203125
1969/12/31/18:00:40.603,44,1730345479,723998371,RU_myo,-0.9028535760066305,-0.3783403851595418,-0.1220649734342771,-0.16375016186208272,15.1875,155.5,17.8125,0.0322265625,0.61376953125,0.42236328125
1969/12/31/18:00:40.624,45,1730345479,745156735,RU_myo,-0.8970720707501951,-0.3782253110925949,-0.14214728893571946,-0.1788895250625134,20.5,142.625,38.1875,0.06494140625,0.4296875,0.43310546875
1969/12/31/18:00:40.647,46,1730345479,767553302,RU_myo,-0.8880925419648547,-0.38353195888304215,-0.16088323418454792,-0.19573313051208088,52.125,136.0,58.5,0.009765625,0.47119140625,0.42431640625
1969/12/31/18:00:40.663,47,1730345479,783917603,RU_myo,-0.8755022900980194,-0.3954865695249331,-0.18004404013866554,-0.21135339355938942,94.9375,129.8125,62.5,-0.10400390625,0.53076171875,0.37890625
1969/12/31/18:00:40.676,48,1730345479,796828829,RU_myo,-0.8604796434890474,-0.4133646801440753,-0.19816848020490366,-0.22233685660192917,131.3125,108.125,51.5625,-0.18408203125,0.63134765625,0.21484375
1969/12/31/18:00:40.691,49,1730345479,811914682,RU_myo,-0.8449988720504632,-0.4330886237681536,-0.21263821381175976,-0.2306428846138462,137.8125,81.9375,49.5,-0.2021484375,0.7802734375,0.1474609375
1969/12/31/18:00:40.715,50,1730345479,835900139,RU_myo,-0.8307465788496359,-0.4509540457772524,-0.223005289385584,-0.2382629036018938,121.3125,61.875,51.6875,-0.16357421875,0.88134765625,0.17041015625
1969/12/31/18:00:40.729,51,1730345479,849416733,RU_myo,-0.8182636604145365,-0.4662277990532292,-0.23021485247136805,-0.2451067994498977,89.0625,45.25,48.6875,-0.1279296875,0.9482421875,0.22314453125
1969/12/31/18:00:40.751,52,1730345479,871898485,RU_myo,-0.809697121133806,-0.47543081130868686,-0.23374839631736466,-0.2524238556576032,47.6875,33.0625,47.125,-0.1259765625,1.0078125,0.27734375
1969/12/31/18:00:40.768,53,1730345479,888501201,RU_myo,-0.8057512528085109,-0.477640456330814,-0.2343038221127006,-0.2602426406586495,-2.4375,25.0,41.25,-0.1220703125,1.0625,0.29833984375
1969/12/31/18:00:40.789,54,1730345479,909410995,RU_myo,-0.8054783751140118,-0.47432777173708895,-0.23289176234543635,-0.26828935725118924,-29.875,21.8125,34.25,-0.08642578125,0.978515625,0.45068359375
1969/12/31/18:00:40.811,55,1730345479,932131133,RU_myo,-0.8057269185802688,-0.4704244120903433,-0.23124521242998322,-0.2757365715910964,-28.1875,20.375,29.875,-0.05908203125,0.86376953125,0.484375
1969/12/31/18:00:40.828,56,1730345479,948433038,RU_myo,-0.8059260587355749,-0.46652773896060085,-0.2303343389373767,-0.2824555698468944,-28.375,21.0,25.5625,-0.06494140625,0.84423828125,0.44775390625
1969/12/31/18:00:40.849,57,1730345479,969578607,RU_myo,-0.8051114598914306,-0.46462352517840066,-0.23130476296153138,-0.287086439306344,-12.3125,21.3125,17.1875,-0.09326171875,0.83935546875,0.42431640625
1969/12/31/18:00:40.871,58,1730345479,992025094,RU_myo,-0.8026115980247787,-0.46590654241663454,-0.23313636259255224,-0.2905049963195154,10.4375,18.125,17.3125,-0.1083984375,0.8154296875,0.4111328125
1969/12/31/18:00:40.888,59,1730345480,8532063,RU_myo,-0.7994317267330896,-0.46889334731585064,-0.23356173892721077,-0.29410348050437124,16.875,10.6875,24.8125,-0.095703125,0.88330078125,0.431640625
1969/12/31/18:00:40.908,60,1730345480,29472419,RU_myo,-0.7961618807158553,-0.47153290075973153,-0.2346068431944613,-0.29789698273469445,12.625,13.3125,25.5,-0.13427734375,0.98046875,0.4091796875
1969/12/31/18:00:40.939,61,1730345480,60198656,RU_myo,-0.794122615265348,-0.47225029180166483,-0.2370405961950977,-0.30026769651902185,6.75,15.8125,14.25,-0.189453125,0.947265625,0.42041015625
1969/12/31/18:00:40.948,62,1730345480,68541155,RU_myo,-0.7926826575975122,-0.47293639619056993,-0.23784141643497886,-0.3023521624374866,10.875,9.0,13.875,-0.13330078125,0.8173828125,0.48583984375
1969/12/31/18:00:40.969,63,1730345480,89579551,RU_myo,-0.7910790566235079,-0.47420801342112756,-0.23667679228405827,-0.30545831495144704,7.3125,4.5,19.875,-0.048828125,0.8564453125,0.4755859375
1969/12/31/18:00:40.991,64,1730345480,112105043,RU_myo,-0.7896811671605473,-0.47433356759964246,-0.23649544190023347,-0.3090003670557115,-3.125,10.0625,19.5625,-0.09375,0.9541015625,0.42919921875
1969/12/31/18:00:41.008,65,1730345480,128582866,RU_myo,-0.788876780893875,-0.4733504806291888,-0.23746863333266807,-0.31180345610295584,-4.5625,12.8125,13.9375,-0.14404296875,0.9267578125,0.453125
1969/12/31/18:00:41.029,66,1730345480,149696290,RU_myo,-0.7876678588005829,-0.4734795636583699,-0.2378383423017102,-0.3143713885543005,3.6875,9.75,14.5625,-0.09765625,0.83984375,0.453125
1969/12/31/18:00:41.051,67,1730345480,172019418,RU_myo,-0.7861199322327833,-0.47413754782365447,-0.23801472988959357,-0.3171088555144431,6.75,9.375,14.6875,-0.06005859375,0.87548828125,0.474609375
1969/12/31/18:00:41.068,68,1730345480,188474037,RU_myo,-0.7844266957831136,-0.4752455208949744,-0.2391790415291389,-0.31876298390066155,9.4375,9.6875,9.9375,-0.09228515625,0.9306640625,0.44970703125
1969/12/31/18:00:41.089,69,1730345480,209540341,RU_myo,-0.7828583648079187,-0.4763553081255013,-0.24046635669628125,-0.319991144202691,8.6875,8.0,8.5625,-0.10400390625,0.90087890625,0.40869140625
1969/12/31/18:00:41.111,70,1730345480,232093041,RU_myo,-0.7816272595639513,-0.4776916186934525,-0.24028004379661716,-0.32114645426918964,5.75,1.375,9.625,-0.0703125,0.9072265625,0.404296875
1969/12/31/18:00:41.126,71,1730345480,247091350,RU_myo,-0.780894350781991,-0.47854572915057375,-0.23899822412366367,-0.32261098384006287,-1.375,-1.9375,11.25,-0.0458984375,0.90576171875,0.3876953125
1969/12/31/18:00:41.149,72,1730345480,269472640,RU_myo,-0.7807929564982057,-0.47837529844703636,-0.23717356593074548,-0.32445050861756125,-6.25,-1.75,11.5,-0.02978515625,0.83544921875,0.40234375
1969/12/31/18:00:41.171,73,1730345480,292165686,RU_myo,-0.7804092085458499,-0.47866969755416444,-0.23491006832665803,-0.32657931296854953,-1.1875,-2.75,14.0,0.0029296875,0.7841796875,0.4306640625
1969/12/31/18:00:41.186,74,1730345480,307140727,RU_myo,-0.7790706735476897,-0.4801980461788658,-0.2324700505713396,-0.32926645388090764,5.75,-1.625,17.0,0.04345703125,0.931640625,0.4990234375
1969/12/31/18:00:41.209,75,1730345480,329482415,RU_myo,-0.7779213072325337,-0.48057056120735686,-0.2319848492696423,-0.3317731230280914,0.0625,6.1875,13.8125,-0.029296875,1.07861328125,0.50927734375
1969/12/31/18:00:41.231,76,1730345480,351984088,RU_myo,-0.7790696825359236,-0.4770848185180818,-0.2325307865618385,-0.33372134932286956,-20.4375,11.4375,3.5,-0.09619140625,0.986328125,0.47705078125
1969/12/31/18:00:41.248,77,1730345480,368445089,RU_myo,-0.7807244656194071,-0.4733050524451612,-0.2325938819946498,-0.3351890842074565,-20.25,8.6875,-0.5,-0.06298828125,0.83935546875,0.4609375
1969/12/31/18:00:41.269,78,1730345480,389507560,RU_myo,-0.7807578465021355,-0.47231180912061493,-0.23240255448136732,-0.33664193553551003,-4.25,5.8125,4.25,-0.01708984375,0.806640625,0.44775390625
1969/12/31/18:00:41.292,79,1730345480,412211033,RU_myo,-0.779356540746327,-0.47335076977513796,-0.2329525384517408,-0.3380466624270873,6.5,5.9375,8.75,-0.04248046875,0.8544921875,0.4013671875
1969/12/31/18:00:41.308,80,1730345480,428429261,RU_myo,-0.7774884302760762,-0.475318305596207,-0.2337530958440515,-0.33903353718373525,12.625,3.875,10.125,-0.06689453125,0.85205078125,0.3974609375
1969/12/31/18:00:41.329,81,1730345480,449505464,RU_myo,-0.7752857805127572,-0.4780003332264752,-0.23436175684239846,-0.3398855791289888,18.0,2.375,11.25,-0.056640625,0.873046875,0.42041015625
1969/12/31/18:00:41.351,82,1730345480,472204168,RU_myo,-0.773325851172476,-0.48013214988350317,-0.23515306641682188,-0.34079800749326067,16.875,3.75,10.0625,-0.0634765625,0.89501953125,0.4501953125
1969/12/31/18:00:41.368,83,1730345480,488440379,RU_myo,-0.771867878387442,-0.4813569982479446,-0.23619266935711242,-0.341655442651451,11.75,5.25,8.0,-0.07421875,0.9130859375,0.45166015625
1969/12/31/18:00:41.389,84,1730345480,509532385,RU_myo,-0.7709781015814764,-0.4818002797565053,-0.23711604849936954,-0.3423992360570047,4.875,5.25,5.8125,-0.07861328125,0.9111328125,0.41845703125
1969/12/31/18:00:41.411,85,1730345480,532028560,RU_myo,-0.7706617512184958,-0.4816101907709789,-0.23747880525787338,-0.3431266623386698,-1.0,3.5625,4.0625,-0.06201171875,0.90576171875,0.41259765625
1969/12/31/18:00:41.428,86,1730345480,548390390,RU_myo,-0.7704570450616761,-0.48129152862455465,-0.23765523870961397,-0.34391044430628526,0.25,3.625,3.3125,-0.0380859375,0.87548828125,0.43994140625
1969/12/31/18:00:41.449,87,1730345480,569590584,RU_myo,-0.7699080602275666,-0.4814137755905704,-0.23759429872896687,-0.34500913709603126,3.8125,4.125,4.375,-0.0048828125,0.853515625,0.4482421875
1969/12/31/18:00:41.467,88,1730345480,587495337,RU_myo,-0.7688895532067278,-0.4819749802884211,-0.23796637307136304,-0.346238326348767,3.625,5.875,6.3125,-0.01708984375,0.90380859375,0.4130859375
1969/12/31/18:00:41.488,89,1730345480,608473895,RU_myo,-0.7680174717591609,-0.48214701421625644,-0.23875431893848043,-0.3473899753061939,7.5,7.125,5.5625,-0.04443359375,0.861328125,0.46923828125
1969/12/31/18:00:41.509,90,1730345480,629579456,RU_myo,-0.7663810932335842,-0.48343590344056864,-0.23979543802777353,-0.34849375188052606,13.875,7.625,6.75,-0.0224609375,0.84130859375,0.43896484375
1969/12/31/18:00:41.527,91,1730345480,647376361,RU_myo,-0.7641755333347797,-0.4856887544348037,-0.24095240041575836,-0.3494053932067418,13.5625,6.25,7.5625,-0.02294921875,0.96240234375,0.376953125
1969/12/31/18:00:41.548,92,1730345480,668361965,RU_myo,-0.7627822985632244,-0.4870381455060434,-0.24174913463025538,-0.35002052186430566,8.875,3.9375,5.9375,-0.041015625,0.96337890625,0.40478515625
1969/12/31/18:00:41.569,93,1730345480,689547597,RU_myo,-0.7622922466294177,-0.4874031930810672,-0.2413213405262384,-0.3508741493893132,1.1875,1.4375,4.0,0.009765625,0.90625,0.4111328125
1969/12/31/18:00:41.587,94,1730345480,707441988,RU_myo,-0.761827385205623,-0.4876622983330338,-0.24145082005074864,-0.3514342320152201,1.0625,2.75,2.5,-0.01171875,0.95458984375,0.4130859375
1969/12/31/18:00:41.608,95,1730345480,728532878,RU_myo,-0.7619943774242589,-0.4868585621716711,-0.24193397774207148,-0.35185403170611557,-2.1875,4.1875,-0.5625,-0.03271484375,0.88134765625,0.4169921875
1969/12/31/18:00:41.630,96,1730345480,750995134,RU_myo,-0.7612125442629956,-0.487537347945222,-0.24248696587210403,-0.3522255927631292,7.3125,3.75,1.75,-0.01123046875,0.8330078125,0.396484375
1969/12/31/18:00:41.646,97,1730345480,767341849,RU_myo,-0.7595461397222415,-0.4894785086839998,-0.24345757744893703,-0.35246114559228164,14.375,3.0625,4.8125,-0.02880859375,0.85595703125,0.37109375
1969/12/31/18:00:41.669,98,1730345480,790009012,RU_myo,-0.7577878416735546,-0.4916221862661471,-0.24425474729200755,-0.35271069080472556,12.0625,1.5625,6.8125,-0.04736328125,0.93359375,0.35205078125
1969/12/31/18:00:41.689,99,1730345480,809521128,RU_myo,-0.7570186007249605,-0.49263577435116745,-0.24418183017579548,-0.352998676765009,4.75,-1.1875,5.8125,-0.044921875,0.91455078125,0.3720703125
1969/12/31/18:00:41.707,100,1730345480,827435565,RU_myo,-0.7570821829323178,-0.49257640455032137,-0.24357234922070778,-0.35336604910746633,-4.0,-2.0625,4.1875,-0.0361328125,0.93017578125,0.373046875
1969/12/31/18:00:41.729,101,1730345480,849881012,RU_myo,-0.757587753608424,-0.491916321121719,-0.24296760228108727,-0.35361825863266005,-7.875,-2.125,2.4375,-0.0498046875,0.96484375,0.3857421875
1969/12/31/18:00:41.749,102,1730345480,869510017,RU_myo,-0.7586288999683163,-0.4906369852651082,-0.2424805003679904,-0.3534978751903852,-7.5625,-2.0625,-1.625,-0.04541015625,0.8935546875,0.4228515625
1969/12/31/18:00:41.767,103,1730345480,887437302,RU_myo,-0.758700234658605,-0.4905215820087852,-0.24248379312192406,-0.3535026755001722,-0.5,-0.875,0.1875,-0.02197265625,0.853515625,0.412109375
1969/12/31/18:00:41.789,104,1730345480,909775607,RU_myo,-0.7582612499982827,-0.49100223408211396,-0.24235797035923862,-0.35386338759578584,4.3125,0.625,2.875,-0.01171875,0.89697265625,0.4189453125
1969/12/31/18:00:41.809,105,1730345480,929460384,RU_myo,-0.7577019612425864,-0.4914229715606368,-0.24290405201333015,-0.3541028416536034,6.1875,2.4375,2.0,-0.0341796875,0.9228515625,0.431640625
1969/12/31/18:00:41.827,106,1730345480,947481464,RU_myo,-0.7573081423541754,-0.4914446455702628,-0.24370820538525326,-0.3543625946573455,4.3125,4.125,1.4375,-0.04638671875,0.9150390625,0.42626953125
1969/12/31/18:00:41.849,107,1730345480,970072234,RU_myo,-0.7567917622535426,-0.4916094874961521,-0.24455359607660848,-0.35465459116575293,3.1875,4.0,1.625,-0.04736328125,0.92578125,0.39501953125
1969/12/31/18:00:41.869,108,1730345480,989596337,RU_myo,-0.756728123364157,-0.49142469951836376,-0.24485791039091845,-0.35483646336311064,-0.875,2.0625,0.75,-0.03369140625,0.9111328125,0.38623046875
1969/12/31/18:00:41.887,109,1730345481,7531079,RU_myo,-0.7564412882105135,-0.4916807340506613,-0.24486384123774246,-0.35508918951176116,0.875,1.125,0.4375,0.00048828125,0.9033203125,0.38232421875
1969/12/31/18:00:41.909,110,1730345481,29919486,RU_myo,-0.756049930690803,-0.49203055708986543,-0.2448556927616646,-0.3554435579870226,3.625,1.5,1.4375,0.00048828125,0.8984375,0.40966796875
1969/12/31/18:00:41.929,111,1730345481,49426417,RU_myo,-0.7556645921133279,-0.4923232324808768,-0.24484948663856174,-0.3558617538857063,2.625,1.4375,1.9375,-0.00439453125,0.8994140625,0.39990234375
1969/12/31/18:00:41.947,112,1730345481,67435615,RU_myo,-0.7553270490197658,-0.49270808554755735,-0.2449198002356432,-0.3559973074444323,2.625,0.3125,1.75,-0.017578125,0.8984375,0.38916015625
1969/12/31/18:00:41.969,113,1730345481,89894539,RU_myo,-0.7547732214000373,-0.49337646331348767,-0.24528451336676235,-0.35599516458530106,7.125,1.125,0.5625,-0.01318359375,0.90380859375,0.41162109375
1969/12/31/18:00:41.989,114,1730345481,109463833,RU_myo,-0.7540981041586936,-0.4941063654312709,-0.2458935951485413,-0.35599338309790063,8.75,1.875,1.125,-0.0263671875,0.90283203125,0.4248046875
1969/12/31/18:00:42.007,115,1730345481,127536591,RU_myo,-0.7537256453735063,-0.49440740511504244,-0.246257731099765,-0.3561124810327457,2.8125,1.6875,1.0625,-0.02880859375,0.89892578125,0.37646484375
1969/12/31/18:00:42.029,116,1730345481,150027776,RU_myo,-0.7534523437154549,-0.49473347089165476,-0.24632917450267933,-0.3561885684830616,0.6875,-0.0625,1.25,-0.01806640625,0.9326171875,0.37255859375
1969/12/31/18:00:42.049,117,1730345481,169443719,RU_myo,-0.753126968771689,-0.4952084460788886,-0.2463835958615323,-0.3561790105147145,4.3125,-0.0625,0.375,-0.00927734375,0.91650390625,0.4033203125
1969/12/31/18:00:42.066,118,1730345481,186577770,RU_myo,-0.7529846392946153,-0.4952561475016861,-0.2465600537161814,-0.3562914835631354,3.1875,1.625,0.0625,-0.01025390625,0.8828125,0.41064453125
1969/12/31/18:00:42.089,119,1730345481,209951636,RU_myo,-0.7524559279242249,-0.49587999143355727,-0.2469940092715823,-0.35624018584586753,5.1875,0.875,1.0625,-0.02783203125,0.89599609375,0.37255859375
1969/12/31/18:00:42.109,120,1730345481,230104581,RU_myo,-0.751848068736197,-0.49661398939089496,-0.24754409991022122,-0.35611928574362445,5.4375,0.875,0.875,-0.03271484375,0.9287109375,0.3759765625
1969/12/31/18:00:42.126,121,1730345481,246528555,RU_myo,-0.7514774300134097,-0.4969772364654589,-0.24803088407167198,-0.3560561460812338,5.625,1.5,0.1875,-0.02880859375,0.89453125,0.39892578125
1969/12/31/18:00:42.148,122,1730345481,268950178,RU_myo,-0.751050537374304,-0.4973436396118319,-0.24876336667785334,-0.3559342380925517,3.0625,2.3125,-0.25,-0.033203125,0.9287109375,0.36279296875
1969/12/31/18:00:42.169,123,1730345481,290128386,RU_myo,-0.7510966556584026,-0.497211705017389,-0.2492466678889182,-0.3556830510422662,-1.0625,1.0,-2.25,-0.03125,0.93603515625,0.36376953125
1969/12/31/18:00:42.186,124,1730345481,306659595,RU_myo,-0.7508760734320642,-0.49765451538365046,-0.24962067303398705,-0.35526697744030283,5.1875,-0.25,-1.25,-0.03125,0.908203125,0.392578125
1969/12/31/18:00:42.216,125,1730345481,336531457,RU_myo,-0.7502760217445609,-0.49845475226452685,-0.2506006137869655,-0.35472254440570955,9.75,1.25,-0.75,-0.05126953125,0.91748046875,0.39990234375
1969/12/31/18:00:42.229,126,1730345481,350075327,RU_myo,-0.749977847611413,-0.498947664731714,-0.251884649828475,-0.3537493167932739,6.5625,1.0,-4.0625,-0.06201171875,0.927734375,0.369140625
1969/12/31/18:00:42.246,127,1730345481,366588163,RU_myo,-0.749773493434789,-0.49966590075300105,-0.25279298411126544,-0.35251865674231514,5.8125,-1.0,-6.5,-0.02880859375,0.92431640625,0.35009765625
1969/12/31/18:00:42.268,128,1730345481,389149692,RU_myo,-0.7493320889439058,-0.5006939613695881,-0.25352056503282167,-0.35147446654405873,9.1875,-1.4375,-3.8125,-0.03173828125,0.9091796875,0.3720703125
1969/12/31/18:00:42.289,129,1730345481,410169293,RU_myo,-0.7488173101311099,-0.5017545934133063,-0.2540205106174651,-0.3506972258548665,8.75,-1.75,-1.3125,-0.0439453125,0.9111328125,0.3671875
1969/12/31/18:00:42.306,130,1730345481,426640953,RU_myo,-0.749185646141715,-0.5016339572821797,-0.25426536878422684,-0.3499047909841509,-2.625,-2.4375,-3.4375,-0.0576171875,0.9814453125,0.34619140625
1969/12/31/18:00:42.328,131,1730345481,449080417,RU_myo,-0.7504628688395758,-0.5004713341317926,-0.2543859171538185,-0.34874307356451983,-8.1875,-3.125,-7.6875,-0.06298828125,0.95654296875,0.35888671875
1969/12/31/18:00:42.349,132,1730345481,470224158,RU_myo,-0.7520341719983391,-0.49905724918279654,-0.25395343204715864,-0.347698318282303,-10.875,-4.75,-7.5,-0.046875,0.896484375,0.34326171875
1969/12/31/18:00:42.366,133,1730345481,486770125,RU_myo,-0.7533819038330218,-0.49808406652473197,-0.25328377356667536,-0.3466630924960762,-8.875,-6.0625,-6.375,-0.04248046875,0.9091796875,0.35498046875
1969/12/31/18:00:42.388,134,1730345481,508945332,RU_myo,-0.7544066518571168,-0.4975873661185238,-0.2532184449927334,-0.3451924620098578,-5.5625,-4.9375,-9.5625,-0.03173828125,0.9970703125,0.36865234375
1969/12/31/18:00:42.409,135,1730345481,530298263,RU_myo,-0.7559995117233633,-0.4963096818708639,-0.25370872448809406,-0.3431811782046074,-8.5625,-3.8125,-14.5,-0.05419921875,0.998046875,0.37109375
1969/12/31/18:00:42.426,136,1730345481,546726271,RU_myo,-0.7581174859985653,-0.49428381251830467,-0.25382471617034563,-0.3413420624046028,-10.125,-3.375,-15.625,-0.04296875,0.8955078125,0.40087890625
1969/12/31/18:00:42.448,137,1730345481,568969761,RU_myo,-0.7595858371136104,-0.49300453095000357,-0.2541310803262955,-0.33969586769840554,-2.9375,-2.5625,-13.75,-0.03515625,0.8935546875,0.43115234375
1969/12/31/18:00:42.469,138,1730345481,590280247,RU_myo,-0.7606850239543997,-0.4919674244300719,-0.25529087413360513,-0.3378652352865498,-3.5,0.125,-14.8125,-0.06201171875,0.9931640625,0.4013671875
1969/12/31/18:00:42.485,139,1730345481,606005559,RU_myo,-0.7626692353192578,-0.4896683158583871,-0.25682715606781664,-0.3355598156038156,-11.25,1.5625,-21.4375,-0.07373046875,0.99169921875,0.3896484375
1969/12/31/18:00:42.508,140,1730345481,629057017,RU_myo,-0.7652330917198849,-0.4868000589853088,-0.25798694199233957,-0.3329966301183356,-13.625,-0.4375,-23.875,-0.06591796875,0.9150390625,0.392578125
1969/12/31/18:00:42.529,141,1730345481,650105257,RU_myo,-0.7674617169572436,-0.4843400545346072,-0.2585262690283009,-0.33103080340167707,-10.75,-0.6875,-19.4375,-0.05419921875,0.890625,0.4228515625
1969/12/31/18:00:42.545,142,1730345481,665912702,RU_myo,-0.7692336359248931,-0.4821442180106836,-0.2599306613300635,-0.3290176556070374,-7.9375,1.9375,-19.3125,-0.08251953125,0.92041015625,0.416015625
1969/12/31/18:00:42.568,143,1730345481,689256687,RU_myo,-0.770941065719042,-0.48000724207411855,-0.2621272860404754,-0.32639271845039874,-4.625,3.0,-22.0,-0.12060546875,0.86669921875,0.40478515625
1969/12/31/18:00:42.591,144,1730345481,711759912,RU_myo,-0.7717959583172637,-0.4793361898326577,-0.26438558369685167,-0.3235244642606211,5.0,1.5,-19.1875,-0.1240234375,0.82861328125,0.39697265625
1969/12/31/18:00:42.612,145,1730345481,732697101,RU_myo,-0.7718173143362397,-0.4795935834298728,-0.2665900703005452,-0.32127521292629807,12.1875,2.75,-14.4375,-0.1171875,0.84521484375,0.4228515625
1969/12/31/18:00:42.628,146,1730345481,749191484,RU_myo,-0.771323034899031,-0.4802611933549988,-0.2695175282571705,-0.3190145199728782,11.75,5.3125,-14.25,-0.14111328125,0.9580078125,0.39208984375
1969/12/31/18:00:42.651,147,1730345481,771685294,RU_myo,-0.7722480658563038,-0.478863378227184,-0.27214527192391197,-0.3166381858580972,-1.4375,4.25,-17.5,-0.189453125,0.94189453125,0.390625
1969/12/31/18:00:42.665,148,1730345481,785981920,RU_myo,-0.7737569342000037,-0.47696091187671785,-0.2740312852625033,-0.31418999031878997,-4.0,1.625,-18.875,-0.158203125,0.85693359375,0.388671875
1969/12/31/18:00:42.688,149,1730345481,809057267,RU_myo,-0.7746820166386141,-0.47574618448735506,-0.2756825548851036,-0.3123018891625139,0.3125,2.25,-14.5,-0.15576171875,0.84619140625,0.40625
1969/12/31/18:00:42.711,150,1730345481,831640327,RU_myo,-0.7752777293452177,-0.4745776291732986,-0.2778134475304598,-0.3107091962604505,0.0625,4.5625,-11.4375,-0.19970703125,0.8876953125,0.3955078125
1969/12/31/18:00:42.725,151,1730345481,846042188,RU_myo,-0.7755409411495763,-0.473673821064127,-0.2805057185428073,-0.3090079314582753,3.75,6.5,-12.5,-0.2109375,0.89794921875,0.4033203125
1969/12/31/18:00:42.748,152,1730345481,869144802,RU_myo,-0.7754291604082791,-0.47337493649166573,-0.28337800801067614,-0.30711999489763564,8.625,6.5625,-11.375,-0.2216796875,0.8701171875,0.39794921875
1969/12/31/18:00:42.771,153,1730345481,891615427,RU_myo,-0.7749197851047734,-0.4736061693638688,-0.2864218753639995,-0.30521964600369944,10.375,6.375,-9.9375,-0.23974609375,0.9091796875,0.38134765625
1969/12/31/18:00:42.785,154,1730345481,905988800,RU_myo,-0.7746272775723693,-0.47367493706580194,-0.28953922193533876,-0.302905387534799,10.9375,6.0625,-13.875,-0.224609375,0.892578125,0.38818359375
1969/12/31/18:00:42.808,155,1730345481,928989662,RU_myo,-0.7742900622456419,-0.47365533010864874,-0.2928838975894093,-0.3005737019437051,11.125,7.625,-15.5,-0.220703125,0.89208984375,0.380859375
1969/12/31/18:00:42.831,156,1730345481,951695477,RU_myo,-0.7737688592501504,-0.4737945775641992,-0.2961292400285321,-0.2985095039116963,9.375,7.25,-12.0625,-0.25634765625,0.94189453125,0.361328125
1969/12/31/18:00:42.852,157,1730345481,972835809,RU_myo,-0.7736428651322311,-0.4734259786076615,-0.299179340870795,-0.29637186439587526,5.0,5.6875,-13.1875,-0.27587890625,0.97021484375,0.35888671875
1969/12/31/18:00:42.868,158,1730345481,989046521,RU_myo,-0.7741227510306492,-0.4726884820823382,-0.3019225204469112,-0.2935001820960574,5.0,3.6875,-18.9375,-0.24267578125,0.91064453125,0.37158203125
1969/12/31/18:00:42.891,159,1730345482,12287320,RU_myo,-0.7741728491211282,-0.4726818065780952,-0.30515287706784716,-0.29001729436528195,13.625,3.6875,-20.625,-0.23974609375,0.83154296875,0.3701171875
1969/12/31/18:00:42.912,160,1730345482,32572020,RU_myo,-0.7730314427599164,-0.474706976297697,-0.30839474816562906,-0.2863011604284516,25.5625,1.125,-14.5625,-0.26318359375,0.79541015625,0.33935546875
1969/12/31/18:00:42.928,161,1730345482,49032958,RU_myo,-0.7710132824104335,-0.4787935724301315,-0.3108343740454633,-0.2822715452503962,35.1875,-4.25,-11.4375,-0.24267578125,0.89013671875,0.34716796875
1969/12/31/18:00:42.951,162,1730345482,71571180,RU_myo,-0.7690445663944812,-0.4825066535921568,-0.31326924524266897,-0.2786039556853271,33.875,-0.5,-15.6875,-0.17431640625,0.9306640625,0.3701171875
1969/12/31/18:00:42.972,163,1730345482,92585634,RU_myo,-0.768077302860731,-0.4842213206910639,-0.3154701293990559,-0.27579986743167606,17.625,1.0,-15.375,-0.19873046875,0.9296875,0.314453125
1969/12/31/18:00:42.988,164,1730345482,108969907,RU_myo,-0.7686843104594715,-0.4839140847664271,-0.3163232061223851,-0.2736626000873577,1.375,-3.8125,-10.0625,-0.26611328125,0.89892578125,0.31689453125
1969/12/31/18:00:43.011,165,1730345482,131699642,RU_myo,-0.7696588914290141,-0.4833636047988099,-0.3166886042046748,-0.2714648123920589,2.4375,-5.9375,-10.1875,-0.2490234375,0.82470703125,0.34375
1969/12/31/18:00:43.032,166,1730345482,152623670,RU_myo,-0.770099868162416,-0.4831891469521198,-0.31718251821525406,-0.26994386724380776,8.0625,-0.8125,-9.875,-0.1884765625,0.78564453125,0.38232421875
1969/12/31/18:00:43.048,167,1730345482,169059325,RU_myo,-0.7691685124015158,-0.484521845588799,-0.31839658249612857,-0.26877871368850875,13.0625,2.75,-7.3125,-0.17919921875,0.88720703125,0.32763671875
1969/12/31/18:00:43.071,168,1730345482,191721052,RU_myo,-0.7686449386548652,-0.48533147150893186,-0.31913962078976416,-0.26793324445726996,5.8125,0.1875,-2.6875,-0.24267578125,0.91455078125,0.29638671875
1969/12/31/18:00:43.092,169,1730345482,212810674,RU_myo,-0.768447212344262,-0.4860546103653167,-0.3191335456554798,-0.26719576647154153,5.8125,-2.9375,-1.75,-0.21240234375,0.84716796875,0.3115234375
1969/12/31/18:00:43.108,170,1730345482,229062191,RU_myo,-0.7675477408445156,-0.48734643055370996,-0.319323296763558,-0.2672013366266928,11.125,2.0,1.5,-0.18359375,0.83447265625,0.333984375
1969/12/31/18:00:43.131,171,1730345482,251648261,RU_myo,-0.7664138944623049,-0.4885446110185341,-0.31991890705298637,-0.26755522482264255,7.1875,3.3125,4.375,-0.2412109375,0.93798828125,0.30126953125
1969/12/31/18:00:43.152,172,1730345482,272648321,RU_myo,-0.7661117880631,-0.48915685344744253,-0.3198591477127943,-0.2673731971245472,2.25,-1.8125,1.5,-0.2421875,0.939453125,0.29833984375
1969/12/31/18:00:43.168,173,1730345482,289194459,RU_myo,-0.7658128526132333,-0.49025937560106014,-0.31919040637290486,-0.26700918315133054,7.5,-3.6875,-0.125,-0.1630859375,0.83935546875,0.32177734375
1969/12/31/18:00:43.191,174,1730345482,311737288,RU_myo,-0.7653549968530275,-0.49101124000658747,-0.31871481607388435,-0.2675080503354721,5.0625,0.3125,3.5,-0.1689453125,0.82275390625,0.31494140625
1969/12/31/18:00:43.213,175,1730345482,334291032,RU_myo,-0.7646187674370971,-0.49192427087667645,-0.31840805473494055,-0.26830013582802353,0.9375,0.6875,4.5625,-0.189453125,0.939453125,0.26611328125
1969/12/31/18:00:43.228,176,1730345482,349060759,RU_myo,-0.7642330549333531,-0.4927661464248438,-0.31772858041710883,-0.2686594719546894,4.625,-0.875,2.375,-0.16748046875,0.90576171875,0.32958984375
1969/12/31/18:00:43.251,177,1730345482,371664571,RU_myo,-0.7643052417926377,-0.49289540307572804,-0.3165736076961121,-0.26957887510964473,-6.0,-2.4375,4.0,-0.158203125,0.88525390625,0.2568359375
1969/12/31/18:00:43.272,178,1730345482,392708338,RU_myo,-0.7646717720425675,-0.49252942775828235,-0.3154751687834649,-0.27049447631037266,-10.6875,-2.5,3.0625,-0.173828125,0.94482421875,0.24951171875
1969/12/31/18:00:43.288,179,1730345482,409145420,RU_myo,-0.7658196044655408,-0.49154535339221117,-0.31370041177501434,-0.2711006282304696,-9.8125,-5.25,0.6875,-0.14599609375,0.82763671875,0.3134765625
1969/12/31/18:00:43.311,180,1730345482,431534485,RU_myo,-0.7655619732813606,-0.4924521334827247,-0.3117419132271357,-0.2724385083488515,0.9375,-2.9375,6.375,-0.0810546875,0.84619140625,0.318359375
1969/12/31/18:00:43.333,181,1730345482,454125281,RU_myo,-0.7644553487508772,-0.4940336937680306,-0.31045699817146033,-0.27414445366349516,3.875,0.5,9.75,-0.126953125,0.97607421875,0.3212890625
1969/12/31/18:00:43.348,182,1730345482,469041673,RU_myo,-0.7651991214374544,-0.4931866406393419,-0.30844762799050046,-0.27585739582846497,-15.5625,-3.625,7.5625,-0.16259765625,0.97412109375,0.28466796875
1969/12/31/18:00:43.371,183,1730345482,491620098,RU_myo,-0.7663037624558027,-0.4923361302748455,-0.30545956762434634,-0.27762948513949076,-11.875,-6.75,8.8125,-0.1201171875,0.8447265625,0.34521484375
1969/12/31/18:00:43.392,184,1730345482,512716748,RU_myo,-0.766508612452415,-0.4923501056336994,-0.3028438358936924,-0.27989557263371084,-5.1875,-2.625,10.4375,-0.0712890625,0.85595703125,0.35888671875
1969/12/31/18:00:43.408,185,1730345482,529176649,RU_myo,-0.7661540893377459,-0.4926627745665805,-0.30095640998362344,-0.28234117878406856,-7.375,-0.5625,14.25,-0.154296875,0.9951171875,0.31982421875
1969/12/31/18:00:43.431,186,1730345482,551535168,RU_myo,-0.7661902438320863,-0.4926467777770114,-0.2990546594533394,-0.28428502117013366,-6.6875,-1.75,10.125,-0.13623046875,0.99951171875,0.36083984375
1969/12/31/18:00:43.459,187,1730345482,580167401,RU_myo,-0.7663846074103072,-0.49253195682099066,-0.2971060180674823,-0.28599811024326666,-3.6875,-1.125,6.9375,-0.08056640625,0.86279296875,0.373046875
1969/12/31/18:00:43.468,188,1730345482,588943993,RU_myo,-0.7654768349263003,-0.49357448286150457,-0.29570525157215155,-0.2880761171146657,0.1875,1.25,10.9375,-0.0712890625,0.8701171875,0.29833984375
1969/12/31/18:00:43.491,189,1730345482,611661041,RU_myo,-0.7638559690227937,-0.4953223909067589,-0.29477663234101104,-0.29032141615863133,6.0625,3.6875,13.6875,-0.10546875,0.99072265625,0.34716796875
1969/12/31/18:00:43.514,190,1730345482,634420989,RU_myo,-0.7624696885355894,-0.49655434130517534,-0.29435614406524835,-0.292281064467857,4.875,5.875,8.8125,-0.08935546875,1.0029296875,0.35302734375
1969/12/31/18:00:43.528,191,1730345482,648994610,RU_myo,-0.7622428868816735,-0.49613839598535703,-0.2935694039475418,-0.29436283476902164,-10.375,4.125,7.0625,-0.1025390625,0.93798828125,0.27197265625
1969/12/31/18:00:43.551,192,1730345482,671544585,RU_myo,-0.762165619937124,-0.49563957395174435,-0.29228148253354314,-0.2966757750251729,-10.5,3.1875,8.625,-0.08154296875,0.9287109375,0.2998046875
1969/12/31/18:00:43.573,193,1730345482,694072458,RU_myo,-0.7610276372668364,-0.4966301936354357,-0.29119118272516453,-0.2990034802285854,5.5,4.25,11.6875,-0.0673828125,0.9169921875,0.3876953125
1969/12/31/18:00:43.588,194,1730345482,708997541,RU_myo,-0.7592806661368368,-0.4981310824699672,-0.290749384573257,-0.3013686945891568,7.75,6.9375,12.875,-0.0751953125,0.9013671875,0.33935546875
1969/12/31/18:00:43.611,195,1730345482,731658670,RU_myo,-0.7579564980951864,-0.4988756272993038,-0.2906344185465237,-0.30357320408450417,-1.0625,6.4375,11.625,-0.11474609375,0.96875,0.28125
1969/12/31/18:00:43.633,196,1730345482,754070675,RU_myo,-0.7567981190431252,-0.4997919191003348,-0.2899025052786165,-0.30564878872322343,-0.9375,3.75,11.625,-0.099609375,1.02978515625,0.31396484375
1969/12/31/18:00:43.648,197,1730345482,768527171,RU_myo,-0.7568135493714182,-0.499252809182113,-0.28826051561945226,-0.3080353212643184,-6.1875,1.9375,11.8125,-0.0908203125,0.8896484375,0.365234375
1969/12/31/18:00:43.671,198,1730345482,791480725,RU_myo,-0.756479878278266,-0.49911193582570873,-0.2869680022319005,-0.3102818637488265,-5.5,2.1875,12.5,-0.09130859375,0.849609375,0.3095703125
1969/12/31/18:00:43.693,199,1730345482,814161718,RU_myo,-0.7550121661223772,-0.5002695599147301,-0.2862345048188464,-0.31266084609529854,2.0,3.6875,16.1875,-0.1181640625,0.97021484375,0.31591796875
1969/12/31/18:00:43.708,200,1730345482,828388534,RU_myo,-0.7535039851427249,-0.5018070440501768,-0.2855698320494743,-0.3144380796578097,6.875,2.375,13.0625,-0.0927734375,0.99462890625,0.35498046875
1969/12/31/18:00:43.731,201,1730345482,851576825,RU_myo,-0.7536689731469854,-0.5013677718359775,-0.28415926301501043,-0.3160173247190129,-11.5625,-0.75,8.0,-0.083984375,0.92724609375,0.2705078125
1969/12/31/18:00:43.753,202,1730345482,874009153,RU_myo,-0.7541666831734725,-0.5006416850426474,-0.2822708513132079,-0.31766914185626965,-15.375,-3.75,11.75,-0.12744140625,0.9326171875,0.267578125
1969/12/31/18:00:43.768,203,1730345482,888504062,RU_myo,-0.7535595648795552,-0.5017423813780533,-0.2806241904362351,-0.31883009370136844,5.3125,-4.3125,11.9375,-0.08837890625,0.88818359375,0.38037109375
1969/12/31/18:00:43.791,204,1730345482,911457796,RU_myo,-0.7525736443287752,-0.5028956961535243,-0.2794000603144216,-0.3204129132046119,2.75,-0.875,12.1875,-0.06787109375,0.89306640625,0.31884765625
1969/12/31/18:00:43.813,205,1730345482,934119899,RU_myo,-0.7515456038475427,-0.5039395851038785,-0.2782439831038612,-0.3221868801941837,-5.0,-0.75,14.25,-0.10009765625,1.05908203125,0.27197265625
1969/12/31/18:00:43.828,206,1730345482,948515876,RU_myo,-0.7519640146382786,-0.5036895554589492,-0.2758605101992549,-0.32364785079350633,-7.0,-6.3125,12.75,-0.10693359375,0.99462890625,0.38623046875
1969/12/31/18:00:43.851,207,1730345482,971543341,RU_myo,-0.7527052599454581,-0.5032682699675868,-0.2733004260144135,-0.32475023823642124,-9.9375,-7.8125,9.125,-0.06494140625,0.8916015625,0.33837890625
1969/12/31/18:00:43.873,208,1730345482,994212047,RU_myo,-0.752529766530672,-0.5037616133774669,-0.27141118181361706,-0.3259741673187607,-4.1875,-5.8125,12.75,-0.091796875,0.89453125,0.30908203125
1969/12/31/18:00:43.888,209,1730345483,8591474,RU_myo,-0.7509933258626926,-0.5061957452015581,-0.27018670894710606,-0.3267629635651244,12.125,-5.625,14.625,-0.09521484375,0.9443359375,0.35302734375
1969/12/31/18:00:43.911,210,1730345483,31645438,RU_myo,-0.7497628489020408,-0.5081420822106953,-0.2695118226089876,-0.3271248571522132,10.5625,-3.8125,9.75,-0.08544921875,0.98095703125,0.3642578125
1969/12/31/18:00:43.933,211,1730345483,54015993,RU_myo,-0.7493223344119776,-0.5092926275181587,-0.2683474755179561,-0.32730214036906957,2.875,-6.4375,7.5625,-0.08203125,0.90185546875,0.31103515625
1969/12/31/18:00:43.947,212,1730345483,68368874,RU_myo,-0.7484840355369107,-0.5110124616398037,-0.2665833551227353,-0.3279805289445008,3.9375,-7.5625,11.875,-0.05419921875,0.8828125,0.28759765625
1969/12/31/18:00:43.971,213,1730345483,91664273,RU_myo,-0.7477069783026864,-0.5124884088488824,-0.2646361487160598,-0.3290252485535697,3.5,-7.1875,14.375,-0.06787109375,0.93505859375,0.33837890625
1969/12/31/18:00:43.993,214,1730345483,114281021,RU_myo,-0.7472304504227069,-0.5136560868053174,-0.2628703381500121,-0.32970178005255757,2.8125,-7.625,12.5625,-0.0830078125,0.9638671875,0.35400390625
1969/12/31/18:00:44.015,215,1730345483,135277998,RU_myo,-0.748021857336414,-0.5130443646189538,-0.2607334672438937,-0.33055535079422477,-12.125,-7.125,8.3125,-0.06201171875,0.92236328125,0.3037109375
1969/12/31/18:00:44.031,216,1730345483,151640648,RU_myo,-0.7488452119255696,-0.5122906853221867,-0.25846450468661675,-0.33164016964984067,-12.625,-6.9375,10.3125,-0.07275390625,0.9521484375,0.33056640625
1969/12/31/18:00:44.053,217,1730345483,174021625,RU_myo,-0.7492658313180756,-0.5121641163493761,-0.2566313285568549,-0.3323085812109572,-6.4375,-6.625,8.4375,-0.0634765625,0.9658203125,0.35302734375
1969/12/31/18:00:44.074,218,1730345483,195122744,RU_myo,-0.7504531965871675,-0.5108403753606532,-0.2547488323483114,-0.33311430928535785,-13.25,-5.1875,5.6875,-0.0537109375,0.87451171875,0.33203125
1969/12/31/18:00:44.091,219,1730345483,211801857,RU_myo,-0.7500175193548408,-0.5114449354864974,-0.2532201715195081,-0.3343311881378321,0.25,-3.375,10.25,-0.0234375,0.9013671875,0.3505859375
1969/12/31/18:00:44.113,220,1730345483,234196660,RU_myo,-0.7488566020774416,-0.5128477609826195,-0.2523652852151769,-0.33542916748309853,9.0,-1.5,11.75,-0.03662109375,0.958984375,0.4013671875
1969/12/31/18:00:44.134,221,1730345483,255181892,RU_myo,-0.7489444863442483,-0.5129271830524865,-0.2515198621322343,-0.33574636291905385,-4.375,-4.0,6.5625,-0.07666015625,0.95849609375,0.31982421875
1969/12/31/18:00:44.151,222,1730345483,271747542,RU_myo,-0.749350449150572,-0.5127905582149459,-0.2501089868560877,-0.3361030235764946,-7.3125,-6.5625,8.0,-0.08203125,0.974609375,0.328125
1969/12/31/18:00:44.173,223,1730345483,294167721,RU_myo,-0.7494072701971689,-0.5130318033453377,-0.2487038542270106,-0.33665041961133507,4.4375,-4.5,5.125,-0.0029296875,0.859375,0.43017578125
1969/12/31/18:00:44.194,224,1730345483,315254624,RU_myo,-0.7491763069766584,-0.5133459810982219,-0.24699930870342457,-0.3379380213221798,-0.0625,-1.3125,4.9375,0.07421875,0.8935546875,0.37744140625
1969/12/31/18:00:44.211,225,1730345483,331562404,RU_myo,-0.7472781139190536,-0.5152337338863648,-0.24840100650527186,-0.33824038772781734,12.125,6.6875,1.4375,0.00146484375,1.34326171875,0.4384765625
1969/12/31/18:00:44.233,226,1730345483,354165803,RU_myo,-0.7503784138367443,-0.5111361704662655,-0.24735939091340584,-0.3383568870525344,-26.375,-1.375,-5.8125,-0.06689453125,1.02490234375,0.42724609375
1969/12/31/18:00:44.254,227,1730345483,375113183,RU_myo,-0.7540622635824247,-0.5063294648870736,-0.2453525131203033,-0.3388550131452547,-37.625,-3.25,-6.0,-0.0234375,0.79052734375,0.2880859375
1969/12/31/18:00:44.270,228,1730345483,391061574,RU_myo,-0.7527810746905886,-0.507977694555681,-0.24596300721607525,-0.33879420671375526,17.0,3.6875,-4.125,0.0771484375,0.8603515625,0.40966796875
1969/12/31/18:00:44.293,229,1730345483,414238368,RU_myo,-0.7494485111030957,-0.5109432357455308,-0.24857522685039976,-0.3398150903763874,28.875,15.4375,1.6875,0.0625,0.95263671875,0.40478515625
1969/12/31/18:00:44.322,230,1730345483,442604567,RU_myo,-0.7476544067704987,-0.5122500764101874,-0.2501743194573285,-0.34062524442335945,2.625,10.5625,-0.5,0.04345703125,1.04638671875,0.2373046875
1969/12/31/18:00:44.330,231,1730345483,451001020,RU_myo,-0.7491021330210703,-0.509919204936536,-0.24894798766440815,-0.34183811691795785,-26.375,2.125,-1.625,0.0361328125,1.0302734375,0.26953125
1969/12/31/18:00:44.353,232,1730345483,474238183,RU_myo,-0.7512246112669217,-0.5071025505741208,-0.24662431181490216,-0.34305252578855855,-36.375,-0.875,-5.0,0.1044921875,1.12939453125,0.2666015625
1969/12/31/18:00:44.374,233,1730345483,495238867,RU_myo,-0.75690035050447,-0.49941264055620693,-0.24375584582445198,-0.3439069081674479,-72.0,-0.5,-15.9375,0.0546875,1.30859375,0.30322265625
1969/12/31/18:00:44.390,234,1730345483,511034032,RU_myo,-0.7680477886408976,-0.4851566967503572,-0.23906891196013955,-0.34288719616851265,-107.25,-10.5625,-34.4375,0.033203125,1.3564453125,0.25
1969/12/31/18:00:44.413,235,1730345483,534098551,RU_myo,-0.7837805534753781,-0.4661669418661375,-0.23070319982377582,-0.3393412145556068,-147.375,-30.3125,-51.25,0.07421875,1.1787109375,0.06689453125
1969/12/31/18:00:44.434,236,1730345483,555144946,RU_myo,-0.8014705802726638,-0.445349590637346,-0.21922649439075603,-0.333539195948074,-165.75,-49.125,-59.625,0.07568359375,1.04931640625,-0.0859375
1969/12/31/18:00:44.450,237,1730345483,570936769,RU_myo,-0.8199114313710181,-0.42417630251813127,-0.20580179742318544,-0.32475425981280237,-168.6875,-66.125,-70.6875,0.09033203125,0.9521484375,-0.02880859375
1969/12/31/18:00:44.473,238,1730345483,594151852,RU_myo,-0.8383543651842282,-0.4044071071425958,-0.19164478062598111,-0.3112701850931541,-155.3125,-82.625,-89.5,0.134765625,0.85400390625,0.13671875
1969/12/31/18:00:44.496,239,1730345483,616656179,RU_myo,-0.8557438517151764,-0.38762065489216785,-0.1769346998161541,-0.2935077514370076,-132.0625,-99.375,-103.875,0.1416015625,0.744140625,0.27490234375
1969/12/31/18:00:44.517,240,1730345483,637722230,RU_myo,-0.8710556731395614,-0.3747394782144694,-0.16198022397087977,-0.27312038518074117,-105.9375,-110.0,-108.6875,0.1767578125,0.68115234375,0.29638671875
1969/12/31/18:00:44.533,241,1730345483,654115782,RU_myo,-0.8832543996395769,-0.3679006026138315,-0.1474531944119139,-0.25053616020732883,-64.6875,-119.0625,-110.375,0.1787109375,0.57763671875,0.32177734375
1969/12/31/18:00:44.557,242,1730345483,678162479,RU_myo,-0.8911758760785343,-0.3705197057713177,-0.13249848150708793,-0.22575397655215027,-5.1875,-135.5,-106.1875,0.20751953125,0.4873046875,0.3671875
1969/12/31/18:00:44.577,243,1730345483,697713783,RU_myo,-0.8941985760042528,-0.3837772606589817,-0.11529186472404843,-0.19957882352971856,59.0625,-159.25,-95.125,0.2802734375,0.43603515625,0.39892578125
1969/12/31/18:00:44.599,244,1730345483,720265535,RU_myo,-0.8926561680577254,-0.4046431282799617,-0.09533221212266971,-0.1741857448131238,104.625,-177.125,-75.375,0.34619140625,0.48828125,0.41943359375
1969/12/31/18:00:44.616,245,1730345483,736538376,RU_myo,-0.8878874635304947,-0.4280755202916477,-0.07250552011783254,-0.15215173539878496,119.8125,-183.5625,-48.25,0.45703125,0.576171875,0.4091796875
1969/12/31/18:00:44.637,246,1730345483,757742960,RU_myo,-0.8821306832096836,-0.4491823597912876,-0.0463829610654047,-0.133900284970392,104.375,-189.25,-21.1875,0.4677734375,0.6259765625,0.31982421875
1969/12/31/18:00:44.653,247,1730345483,774058030,RU_myo,-0.8776337196016454,-0.4641449539339717,-0.015868203553298176,-0.11864533733696792,65.625,-200.0,3.6875,0.43603515625,0.61572265625,0.24853515625
1969/12/31/18:00:44.676,248,1730345483,796658856,RU_myo,-0.8755877409284836,-0.47105717164966093,0.024169297742066047,-0.104245354907699,11.0625,-239.5625,29.8125,0.5361328125,0.57763671875,0.16064453125
1969/12/31/18:00:44.697,249,1730345483,817615780,RU_myo,-0.8756241826198587,-0.46939608200525085,0.07000355039136949,-0.0897168431345363,-37.0,-264.5625,44.6875,0.54833984375,0.44482421875,0.33642578125
1969/12/31/18:00:44.713,250,1730345483,834111685,RU_myo,-0.8750977054640634,-0.46238946970259065,0.12035797706619704,-0.07690215573195146,-59.75,-281.1875,68.0,0.56640625,0.220703125,0.50830078125
1969/12/31/18:00:44.736,251,1730345483,856693270,RU_myo,-0.8716198861165865,-0.45335708382284184,0.17486107231454523,-0.06457347801353887,-62.5625,-303.625,85.0625,0.517578125,0.16455078125,0.56640625
1969/12/31/18:00:44.757,252,1730345483,877597258,RU_myo,-0.8612436545316724,-0.4487182586717352,0.23265968471934909,-0.05273294008329423,-25.8125,-327.6875,94.6875,0.583984375,0.345703125,0.49169921875
1969/12/31/18:00:44.773,253,1730345483,894144779,RU_myo,-0.8440407954614828,-0.44707490250599186,0.2927196221732064,-0.045104212007089146,13.0625,-338.25,117.625,0.7431640625,0.21484375,0.51513671875
1969/12/31/18:00:44.796,254,1730345483,916641356,RU_myo,-0.8219617383411646,-0.4459845861779825,0.3521734038931106,-0.03808599723211455,29.1875,-344.1875,120.5,0.86767578125,0.4580078125,0.6181640625
1969/12/31/18:00:44.817,255,1730345483,937695798,RU_myo,-0.796638700097948,-0.447113699296527,0.40555153314570325,-0.03136997562631926,50.5,-323.4375,102.9375,0.93408203125,0.49169921875,0.63916015625
1969/12/31/18:00:44.833,256,1730345483,954128537,RU_myo,-0.7697509738594677,-0.44645800616730147,0.4552467898840604,-0.030150410806103478,59.9375,-296.125,121.0625,1.23583984375,0.51904296875,0.60400390625
1969/12/31/18:00:44.856,257,1730345483,976618935,RU_myo,-0.7435083523016119,-0.43980636896120634,0.5027927931588146,-0.031065978601339722,36.3125,-278.3125,139.9375,1.42919921875,0.564453125,0.44482421875
1969/12/31/18:00:44.877,258,1730345483,997704532,RU_myo,-0.7180024417750904,-0.42937327251681073,0.5470465730729459,-0.029174189660701566,11.3125,-271.0,133.375,1.3466796875,0.59912109375,0.46875
1969/12/31/18:00:44.893,259,1730345484,14237655,RU_myo,-0.6932750615110282,-0.4163068223053723,0.5878098527522417,-0.023192580629825755,-13.3125,-265.6875,117.375,1.31591796875,0.62451171875,0.47705078125
1969/12/31/18:00:44.916,260,1730345484,36589452,RU_myo,-0.6715641076957621,-0.39843410842842275,0.6245674374307674,-0.012939342982050493,-52.375,-251.5,108.25,1.3828125,0.69384765625,0.51806640625
1969/12/31/18:00:44.938,261,1730345484,59102925,RU_myo,-0.6553959900168912,-0.375488557513868,0.6553349548157349,0.0007324224138762055,-95.4375,-218.0,101.5625,1.341796875,0.771484375,0.6044921875
1969/12/31/18:00:44.953,262,1730345484,74105049,RU_myo,-0.6450178768700409,-0.3507071082981884,0.6788312667059608,0.012023894941653866,-106.5625,-163.875,102.125,1.24169921875,0.71240234375,0.5673828125
1969/12/31/18:00:44.976,263,1730345484,96555800,RU_myo,-0.6455055220316391,-0.33080937305327957,0.6882299798060479,0.015075630100398533,-62.4375,-85.75,82.625,1.18603515625,0.54833984375,0.5068359375
1969/12/31/18:00:44.997,264,1730345484,117714800,RU_myo,-0.6499078275540465,-0.32312284363928645,0.6878109794051982,0.011291599182710237,0.0625,-19.3125,41.9375,1.1396484375,0.52978515625,0.5146484375
1969/12/31/18:00:45.021,265,1730345484,141676883,RU_myo,-0.6575830911173183,-0.3229322568314211,0.680654040480818,0.0030517128787698085,35.375,34.3125,17.5,1.109375,0.517578125,0.4326171875
1969/12/31/18:00:45.035,266,1730345484,156361252,RU_myo,-0.6660748847725059,-0.3289786153141947,0.6693707744250044,-0.007751444182727779,60.75,70.25,-6.1875,1.0126953125,0.44921875,0.27783203125
1969/12/31/18:00:45.057,267,1730345484,177785345,RU_myo,-0.6746505674831206,-0.33866799339278414,0.6554864388247436,-0.022093676988320033,84.1875,95.4375,-13.25,0.95166015625,0.3935546875,0.1728515625
1969/12/31/18:00:45.073,268,1730345484,194157386,RU_myo,-0.6795717068233683,-0.35315267609843803,0.6419126675643403,-0.037598003538997206,107.75,95.75,-24.0625,0.9833984375,0.30712890625,0.14599609375
1969/12/31/18:00:45.096,269,1730345484,216437162,RU_myo,-0.682416515657931,-0.37016869398670527,0.6279745576964898,-0.054136790035648405,125.75,91.25,-30.375,0.99755859375,0.29150390625,0.1435546875
1969/12/31/18:00:45.118,270,1730345484,239094933,RU_myo,-0.6835139413212176,-0.3885391329985598,0.6138747407633545,-0.07073780319593635,133.1875,88.6875,-33.1875,0.9658203125,0.36767578125,-0.068359375
1969/12/31/18:00:45.124,271,1730345484,244467149,RU_myo,-0.6821727586797698,-0.408436977819184,0.6002656420878175,-0.08660670524886761,140.5625,79.625,-37.25,0.89208984375,0.47509765625,-0.3037109375
1969/12/31/18:00:45.142,272,1730345484,262536303,RU_myo,-0.6790829264819721,-0.42847044255828187,0.5875294131148178,-0.10034265065040104,137.4375,64.5625,-42.6875,0.9384765625,0.52392578125,-0.26416015625
1969/12/31/18:00:45.161,273,1730345484,281935453,RU_myo,-0.6775219871095166,-0.444499831737556,0.5753535512549691,-0.1111402160639969,108.9375,60.8125,-41.5,0.97607421875,0.48779296875,-0.1474609375
1969/12/31/18:00:45.184,274,1730345484,304555374,RU_myo,-0.6765626155579687,-0.45586343487618114,0.5656026845625346,-0.1206033133371715,81.0625,56.375,-30.625,0.9560546875,0.43603515625,-0.138671875
1969/12/31/18:00:45.199,275,1730345484,319519425,RU_myo,-0.6749843154068906,-0.46441411121539294,0.5583467327373393,-0.13024835238975538,69.0,49.25,-16.125,0.9384765625,0.3837890625,-0.17578125
1969/12/31/18:00:45.221,276,1730345484,342132716,RU_myo,-0.6719824948324123,-0.4719746260253446,0.5532106569628507,-0.14013367921300804,65.6875,42.3125,-5.875,0.87939453125,0.3408203125,-0.24072265625
1969/12/31/18:00:45.244,277,1730345484,364614995,RU_myo,-0.6674759681246084,-0.479855162892801,0.5493127023702886,-0.14990133300238098,68.1875,35.8125,-1.0625,0.82470703125,0.3359375,-0.29931640625
1969/12/31/18:00:45.259,278,1730345484,379595317,RU_myo,-0.6615497522819277,-0.4890670878342178,0.5460730356736236,-0.15801755776897414,69.4375,27.125,-2.1875,0.775390625,0.40673828125,-0.37646484375
1969/12/31/18:00:45.283,279,1730345484,403471051,RU_myo,-0.6557025717899866,-0.4982924505346226,0.5433975608904636,-0.1627201951402871,58.875,15.25,-7.5,0.8115234375,0.53173828125,-0.3837890625
1969/12/31/18:00:45.304,280,1730345484,424544894,RU_myo,-0.6525205086068727,-0.5047558325861788,0.5407051899493298,-0.16454918073184258,36.5625,9.875,-9.125,0.87353515625,0.62548828125,-0.267578125
1969/12/31/18:00:45.319,281,1730345484,439639607,RU_myo,-0.6535679859284708,-0.5064114287680727,0.5380888460912774,-0.16388028037149271,3.6875,11.0625,-6.625,0.82373046875,0.6162109375,-0.11376953125
1969/12/31/18:00:45.341,282,1730345484,461969724,RU_myo,-0.6566501291665895,-0.5043737027077513,0.5370261628903078,-0.16130925656541464,-23.25,8.125,-4.5625,0.78857421875,0.52001953125,-0.08203125
1969/12/31/18:00:45.364,283,1730345484,484481104,RU_myo,-0.6594764723347064,-0.5010312227113007,0.5376518505133205,-0.15807904334538544,-33.0625,2.8125,-4.875,0.7998046875,0.41796875,-0.1201171875
1969/12/31/18:00:45.379,284,1730345484,499454350,RU_myo,-0.6608713289834863,-0.49858310735741596,0.5389262869342616,-0.15563556417693852,-24.1875,-2.4375,-7.75,0.82470703125,0.3330078125,-0.12109375
1969/12/31/18:00:45.401,285,1730345484,521891298,RU_myo,-0.6602302950715798,-0.4984229074192957,0.5399276315247477,-0.15539856995953058,-2.8125,-4.0625,-7.1875,0.84033203125,0.3056640625,-0.11669921875
1969/12/31/18:00:45.424,286,1730345484,544547961,RU_myo,-0.6578902683553652,-0.5009096792274313,0.5399717231783947,-0.15716369245895404,20.0625,-3.0625,-5.625,0.84423828125,0.36279296875,-0.10498046875
1969/12/31/18:00:45.439,287,1730345484,559450537,RU_myo,-0.6551327435414923,-0.5051125941447168,0.5386199424029876,-0.1598465302156855,34.0625,-1.3125,-6.0625,0.8740234375,0.46533203125,-0.0634765625
1969/12/31/18:00:45.461,288,1730345484,582003014,RU_myo,-0.6530787677929929,-0.509218332681957,0.5366232267697191,-0.16192691317334673,31.6875,-0.0625,-6.3125,0.88427734375,0.54296875,-0.04345703125
1969/12/31/18:00:45.487,289,1730345484,607549108,RU_myo,-0.6520895354657789,-0.5118939473934376,0.5349648800409539,-0.1629613496530915,20.625,-0.625,-4.5625,0.88232421875,0.5615234375,-0.02978515625
1969/12/31/18:00:45.499,290,1730345484,619553045,RU_myo,-0.6515469264490443,-0.5131809421623948,0.5342989971086589,-0.1632681993677933,10.375,-3.625,-3.5,0.88720703125,0.52294921875,-0.03271484375
1969/12/31/18:00:45.521,291,1730345484,642019445,RU_myo,-0.6508122027207031,-0.5142167127376839,0.5342360696252756,-0.16314555170894113,6.5625,-5.3125,-5.0,0.87890625,0.47607421875,-0.0673828125
1969/12/31/18:00:45.544,292,1730345484,664464688,RU_myo,-0.6491621953961577,-0.5164123105722913,0.5340512607856694,-0.1633891685855128,14.0625,-6.6875,-8.5,0.88623046875,0.44580078125,-0.09521484375
1969/12/31/18:00:45.559,293,1730345484,679581293,RU_myo,-0.6462164827519785,-0.5204886819898822,0.5331224949790832,-0.16515506255448184,30.0625,-5.3125,-11.3125,0.90625,0.43212890625,-0.09375
1969/12/31/18:00:45.581,294,1730345484,701937003,RU_myo,-0.642636472888542,-0.5258767072283862,0.5311257087165061,-0.16845632682803457,43.75,-1.75,-11.9375,0.888671875,0.43115234375,-0.07421875
1969/12/31/18:00:45.604,295,1730345484,724535696,RU_myo,-0.6385875601174024,-0.5325123255303771,0.5281179544772897,-0.1724180309023857,52.4375,1.9375,-13.4375,0.86376953125,0.45849609375,-0.0849609375
1969/12/31/18:00:45.619,296,1730345484,739600569,RU_myo,-0.6343834669670826,-0.5397813528821318,0.5245229473845591,-0.17626510030795983,54.875,3.5,-15.8125,0.85791015625,0.4833984375,-0.11328125
1969/12/31/18:00:45.641,297,1730345484,761999010,RU_myo,-0.6302456754150018,-0.546872094878793,0.5209933261032786,-0.17968654546017485,52.0625,4.3125,-15.9375,0.85546875,0.5,-0.15185546875
1969/12/31/18:00:45.664,298,1730345484,784520796,RU_myo,-0.6263864116406389,-0.5531462582772202,0.5178689177405068,-0.18297831648627452,46.875,5.0,-13.8125,0.8369140625,0.4755859375,-0.16943359375
1969/12/31/18:00:45.679,299,1730345484,799671513,RU_myo,-0.6231118296371154,-0.5582310504320753,0.5152009946093536,-0.18621943307109795,39.75,6.0,-11.25,0.814453125,0.43701171875,-0.16943359375
1969/12/31/18:00:45.701,300,1730345484,821868947,RU_myo,-0.6202982398343311,-0.5624981381790017,0.5128156854361949,-0.18933042801988537,34.125,7.6875,-9.25,0.7998046875,0.421875,-0.1845703125
1969/12/31/18:00:45.724,301,1730345484,844582323,RU_myo,-0.617173637424949,-0.5671869672260732,0.51030347928303,-0.19231745762717706,35.75,7.8125,-9.8125,0.7978515625,0.4404296875,-0.2138671875
1969/12/31/18:00:45.739,302,1730345484,859466509,RU_myo,-0.6134453858009907,-0.5722479292876419,0.5077967973200918,-0.1958557599279056,40.0625,8.0,-9.25,0.80419921875,0.42724609375,-0.22900390625
1969/12/31/18:00:45.761,303,1730345484,882016818,RU_myo,-0.6099551119417315,-0.5765705365732977,0.5052239760509959,-0.20067364499343737,41.8125,11.625,-4.5625,0.81396484375,0.408203125,-0.20068359375
1969/12/31/18:00:45.784,304,1730345484,904602808,RU_myo,-0.6067960166652249,-0.5803074357727779,0.5024285666051228,-0.20641562345220182,41.4375,17.3125,1.4375,0.80615234375,0.431640625,-0.2021484375
1969/12/31/18:00:45.799,305,1730345484,919614255,RU_myo,-0.6032561253700259,-0.5839695070356543,0.5004145054541523,-0.21129833124555136,37.4375,15.125,4.5,0.79736328125,0.4716796875,-0.279296875
1969/12/31/18:00:45.821,306,1730345484,942194590,RU_myo,-0.5998352427855658,-0.587201350309313,0.4989472028665039,-0.21550857166013765,32.125,12.75,5.0625,0.81982421875,0.47998046875,-0.30908203125
1969/12/31/18:00:45.839,307,1730345484,959875905,RU_myo,-0.5973189322656484,-0.5891406614039341,0.4978980126109287,-0.2195926758242365,24.25,14.5,7.75,0.8515625,0.478515625,-0.2978515625
1969/12/31/18:00:45.859,308,1730345484,979532560,RU_myo,-0.5957544938190016,-0.5896510772241957,0.4976725891404712,-0.22295780820825867,12.9375,14.125,10.875,0.84326171875,0.4677734375,-0.30908203125
1969/12/31/18:00:45.881,309,1730345485,2014608,RU_myo,-0.594348016834096,-0.5894042717772505,0.498463776287129,-0.22558125592717385,5.8125,9.8125,14.0625,0.82275390625,0.45654296875,-0.3076171875
1969/12/31/18:00:45.904,310,1730345485,24439613,RU_myo,-0.5930558645013089,-0.5886004689976971,0.4999808214464055,-0.22771343320514392,1.75,6.4375,16.125,0.8232421875,0.4453125,-0.30224609375
1969/12/31/18:00:45.920,311,1730345485,40836115,RU_myo,-0.5921479435727487,-0.5872042223369837,0.5019402894189121,-0.22936425190129764,-2.875,4.4375,17.0,0.84716796875,0.4521484375,-0.29443359375
1969/12/31/18:00:45.941,312,1730345485,61895234,RU_myo,-0.5917849142230829,-0.585376352342573,0.504079167344105,-0.2302809902396547,-7.5625,1.9375,16.375,0.8720703125,0.4658203125,-0.2744140625
1969/12/31/18:00:45.959,313,1730345485,79846747,RU_myo,-0.5918084120884819,-0.5830802145917149,0.5064796001970114,-0.2307784247222102,-11.3125,-0.4375,16.1875,0.8857421875,0.462890625,-0.2451171875
1969/12/31/18:00:45.988,314,1730345485,108670873,RU_myo,-0.5923800781782005,-0.5802956710610272,0.5090098755415404,-0.2307633500506672,-14.9375,-2.625,16.125,0.91552734375,0.4833984375,-0.2109375
1969/12/31/18:00:46.001,315,1730345485,122119452,RU_myo,-0.5938601594007226,-0.5767706584107737,0.5115864189205402,-0.2300979240432399,-21.0,-4.3125,16.0625,0.94091796875,0.505859375,-0.1708984375
1969/12/31/18:00:46.019,316,1730345485,139793893,RU_myo,-0.5961681016992614,-0.5726704850782319,0.5140790254517689,-0.22881185639542698,-26.4375,-4.375,14.5625,0.951171875,0.5146484375,-0.1416015625
1969/12/31/18:00:46.041,317,1730345485,162306442,RU_myo,-0.5993480648077937,-0.5682210268187943,0.5160984965391755,-0.22704427709623143,-29.8125,-3.1875,11.375,0.9453125,0.51171875,-0.09521484375
1969/12/31/18:00:46.061,318,1730345485,182062763,RU_myo,-0.6030112485664495,-0.5637056570607012,0.5175032769832921,-0.2253968158862245,-30.0625,-1.5625,8.8125,0.943359375,0.5009765625,-0.05908203125
1969/12/31/18:00:46.079,319,1730345485,199918565,RU_myo,-0.6064979089277586,-0.5596845954380142,0.5182423009666497,-0.22436211263142203,-24.9375,1.625,6.75,0.92724609375,0.4765625,-0.0419921875
1969/12/31/18:00:46.100,320,1730345485,220936678,RU_myo,-0.6092345588848487,-0.5569900405112331,0.5179897516785925,-0.2242364024587191,-14.875,5.25,3.0625,0.89599609375,0.455078125,-0.05029296875
1969/12/31/18:00:46.121,321,1730345485,242005783,RU_myo,-0.6108910716550748,-0.5561434154182279,0.5166543032830662,-0.22491094005884213,-2.0625,7.9375,-1.25,0.86474609375,0.44091796875,-0.07421875
1969/12/31/18:00:46.139,322,1730345485,259951212,RU_myo,-0.6112717603265123,-0.5570721274588195,0.5145302985074887,-0.226442159841374,10.4375,9.6875,-4.8125,0.8505859375,0.43115234375,-0.10595703125
1969/12/31/18:00:46.160,323,1730345485,280942357,RU_myo,-0.6106915727854871,-0.5592411434572675,0.5120019592342047,-0.22838375628255975,18.6875,9.875,-7.0625,0.85888671875,0.43505859375,-0.13671875
1969/12/31/18:00:46.181,324,1730345485,301952800,RU_myo,-0.6094018787007216,-0.5620412519734547,0.5096760229373787,-0.23015067446974674,21.0,8.5,-8.0,0.8662109375,0.43994140625,-0.18115234375
1969/12/31/18:00:46.199,325,1730345485,319902150,RU_myo,-0.6080646991292092,-0.5646097090880573,0.5078496799612717,-0.2314344413427644,18.0625,5.8125,-7.0625,0.8564453125,0.4375,-0.19482421875
1969/12/31/18:00:46.227,326,1730345485,348444744,RU_myo,-0.6068696851672836,-0.5665256379083502,0.5068335377279617,-0.23211560019020208,12.1875,3.25,-5.8125,0.85302734375,0.4287109375,-0.20654296875
1969/12/31/18:00:46.241,327,1730345485,362034501,RU_myo,-0.6060521585282148,-0.5677237843534193,0.5064472116281094,-0.2321674129950986,5.25,1.125,-4.625,0.857421875,0.4228515625,-0.21484375
