time,.header.seq,.header.stamp.secs,.header.stamp.nsecs,.header.frame_id,.orientation.x,.orientation.y,.orientation.z,.orientation.w,.angular_velocity.x,.angular_velocity.y,.angular_velocity.z,.linear_acceleration.x,.linear_acceleration.y,.linear_acceleration.z
1969/12/31/18:00:15.884,1,1730346432,227526276,RU_myo,0.6238472088205261,0.5837466691282176,-0.49445125121368577,0.15991387213675556,24.3125,32.0625,-32.875,0.9423828125,0.6962890625,-0.11474609375
1969/12/31/18:00:15.900,2,1730346432,242927018,RU_myo,0.6264431767240505,0.5885379625814376,-0.48416128595685165,0.16364553802954102,37.3125,39.625,-38.375,0.94873046875,0.666015625,0.03271484375
1969/12/31/18:00:15.926,3,1730346432,269736106,RU_myo,0.6303219566922585,0.5937612079696225,-0.47120030073247177,0.1676667391336917,42.375,48.5,-44.0,0.8857421875,0.72900390625,0.13818359375
1969/12/31/18:00:15.941,4,1730346432,284645525,RU_myo,0.6365488695722967,0.5984011043519798,-0.4546603250018255,0.17322137231241522,37.4375,76.4375,-54.1875,0.89892578125,0.70654296875,0.1142578125
1969/12/31/18:00:15.959,5,1730346432,302402765,RU_myo,0.642400104945996,0.6055956143728429,-0.4334140755554886,0.18090963525510043,50.5,108.1875,-69.5,0.87109375,0.67724609375,0.16015625
1969/12/31/18:00:15.979,6,1730346432,322163226,RU_myo,0.6488836168632413,0.6134821966976237,-0.40797084894308194,0.19013004106189413,59.625,128.75,-81.0625,0.89111328125,0.74462890625,0.2421875
1969/12/31/18:00:16.001,7,1730346432,344663709,RU_myo,0.6599938923344091,0.6174510510362418,-0.3799557920819104,0.196966641132261,25.4375,145.875,-94.875,0.9677734375,0.85205078125,0.2431640625
1969/12/31/18:00:16.019,8,1730346432,362535431,RU_myo,0.6783049112356836,0.614521177568691,-0.3496203123871138,0.2000795013975138,-31.125,165.125,-109.5,0.89013671875,0.87890625,0.314453125
1969/12/31/18:00:16.039,9,1730346432,382152922,RU_myo,0.7032802733827412,0.6033610052411384,-0.3174588354334002,0.2014255252701828,-88.9375,189.4375,-115.1875,0.86279296875,0.8505859375,0.32861328125
1969/12/31/18:00:16.061,10,1730346432,404619936,RU_myo,0.7325948153021252,0.5849405195001054,-0.28285655508332347,0.20283390861931028,-131.375,218.0,-116.625,0.88232421875,0.80419921875,0.31494140625
1969/12/31/18:00:16.087,11,1730346432,430085001,RU_myo,0.7636852762515,0.5600073856783497,-0.24847848142741819,0.20355581811850643,-167.25,226.375,-110.625,0.83056640625,0.8154296875,0.3427734375
1969/12/31/18:00:16.100,12,1730346432,443725856,RU_myo,0.7945750509678734,0.528943569802396,-0.21600868838341558,0.20544934871392395,-194.375,229.1875,-90.75,0.794921875,0.7666015625,0.39306640625
1969/12/31/18:00:16.121,13,1730346432,464540040,RU_myo,0.8228230168591266,0.4948779037678065,-0.1843890166850695,0.20990196238992187,-197.8125,235.25,-71.3125,0.81103515625,0.63916015625,0.42626953125
1969/12/31/18:00:16.139,14,1730346432,482516398,RU_myo,0.846786710589685,0.46090149583094586,-0.15204683169313815,0.21772422667580238,-180.5,244.875,-54.3125,0.82861328125,0.5439453125,0.47607421875
1969/12/31/18:00:16.159,15,1730346432,502166024,RU_myo,0.8652766365050688,0.42989160206724036,-0.11908540616685873,0.2287099010288158,-147.5625,248.1875,-36.0,0.77294921875,0.4677734375,0.52587890625
1969/12/31/18:00:16.181,16,1730346432,524476010,RU_myo,0.8778038772373193,0.40401806991404055,-0.0852716790557357,0.2428137002746719,-104.0625,249.5,-18.0625,0.7021484375,0.40771484375,0.54248046875
1969/12/31/18:00:16.205,17,1730346432,548558143,RU_myo,0.8840270024020255,0.38607131051528076,-0.052432451499229434,0.2582557651842139,-50.25,233.75,-3.125,0.6240234375,0.41943359375,0.5693359375
1969/12/31/18:00:16.219,18,1730346432,562100235,RU_myo,0.884820839963605,0.3755727530557438,-0.018861040255846714,0.2751026162883532,0.875,227.875,8.125,0.58154296875,0.43408203125,0.5830078125
1969/12/31/18:00:16.241,19,1730346432,584616692,RU_myo,0.8812259433411406,0.3717910383660655,0.01379490636524886,0.29158525533979557,41.5625,211.0625,15.625,0.48046875,0.50634765625,0.54248046875
1969/12/31/18:00:16.259,20,1730346432,602531397,RU_myo,0.8745492625413444,0.3720862859053626,0.04559521908978114,0.30763039385876434,64.125,199.0,21.25,0.41455078125,0.6162109375,0.373046875
1969/12/31/18:00:16.279,21,1730346432,622179321,RU_myo,0.8669132278879691,0.372449800504991,0.07770052376972363,0.32203296418622296,67.125,196.875,14.4375,0.3544921875,0.638671875,0.349609375
1969/12/31/18:00:16.301,22,1730346432,644516633,RU_myo,0.8595202048013142,0.36988300249225703,0.10992727516312788,0.33515306380940324,54.6875,199.4375,5.875,0.29736328125,0.587890625,0.42578125
1969/12/31/18:00:16.319,23,1730346432,662432922,RU_myo,0.8505778045880155,0.37056748128122297,0.13843634451421738,0.3464570950011895,68.8125,170.75,10.75,0.18603515625,0.640625,0.50537109375
1969/12/31/18:00:16.340,24,1730346432,683641958,RU_myo,0.840465323075764,0.3732010302335116,0.16352724239378108,0.3572084443779048,71.4375,149.25,19.6875,0.115234375,0.6640625,0.28564453125
1969/12/31/18:00:16.361,25,1730346432,704632806,RU_myo,0.8319708013537355,0.3721589123883877,0.18495022216447676,0.36758093659223734,43.25,136.875,18.5,0.1142578125,0.68603515625,0.2890625
1969/12/31/18:00:16.379,26,1730346432,722469235,RU_myo,0.8223238101180645,0.3721576803956235,0.20576407095516597,0.3780785094916339,51.3125,133.125,24.25,0.083984375,0.60986328125,0.37060546875
1969/12/31/18:00:16.400,27,1730346432,743608370,RU_myo,0.809057830724241,0.37855727394581234,0.22852602928944232,0.3871636228052705,95.0,129.75,29.0625,0.068359375,0.5888671875,0.31982421875
1969/12/31/18:00:16.421,28,1730346432,764651645,RU_myo,0.794490195715766,0.38808917212360483,0.2505671675947464,0.3941931226131236,112.625,115.625,28.875,-0.021484375,0.732421875,0.29443359375
1969/12/31/18:00:16.439,29,1730346432,782483427,RU_myo,0.7801939289325226,0.3977267752248722,0.2711329551179992,0.39949689132086996,111.9375,103.6875,24.375,-0.0986328125,0.7861328125,0.32373046875
1969/12/31/18:00:16.462,30,1730346432,804836313,RU_myo,0.7666497260472587,0.4091443561858897,0.2883481931407046,0.4021248722292468,114.625,77.5625,21.625,-0.12451171875,0.85693359375,0.32080078125
1969/12/31/18:00:16.481,31,1730346432,824592768,RU_myo,0.754634681608883,0.4205640181416488,0.3020858237711205,0.4029845642628687,88.875,52.5,19.1875,-0.15380859375,1.00732421875,0.21826171875
1969/12/31/18:00:16.499,32,1730346432,842459108,RU_myo,0.7483208447420139,0.42421124559192463,0.3103151039696899,0.404679217017908,23.6875,38.125,9.625,-0.162109375,1.0615234375,0.15869140625
1969/12/31/18:00:16.520,33,1730346432,863507603,RU_myo,0.7463295731010465,0.4233087093690814,0.3134376672833789,0.40688909252405137,-9.1875,24.1875,2.125,-0.0986328125,1.03369140625,0.3046875
1969/12/31/18:00:16.544,34,1730346432,887475842,RU_myo,0.7457129062347634,0.42202333090833705,0.3138623036636779,0.40902203361538425,-8.4375,12.875,2.625,-0.048828125,0.86865234375,0.4130859375
1969/12/31/18:00:16.559,35,1730346432,902639469,RU_myo,0.7451582876789979,0.4210437310296304,0.31306658400275067,0.4116437985015696,-11.125,7.4375,10.0625,-0.06591796875,0.7919921875,0.373046875
1969/12/31/18:00:16.580,36,1730346432,923690892,RU_myo,0.7432645662666404,0.42195844186591813,0.31416463189409527,0.4132909894219777,3.0625,8.875,10.9375,-0.11328125,0.81396484375,0.33056640625
1969/12/31/18:00:16.601,37,1730346432,944666033,RU_myo,0.7397176105772679,0.42622725263314315,0.31684743926946096,0.4132261922277501,31.3125,7.5625,8.5625,-0.1005859375,0.83447265625,0.376953125
1969/12/31/18:00:16.619,38,1730346432,962548956,RU_myo,0.7347833306907376,0.4329471809760261,0.32014774625958786,0.41249923150091417,54.1875,7.0625,10.5625,-0.06787109375,0.81884765625,0.45556640625
1969/12/31/18:00:16.639,39,1730346432,982744586,RU_myo,0.7290589811351208,0.44070712021061387,0.3241822043543726,0.41128595235167814,59.0,7.1875,10.375,-0.07421875,0.89208984375,0.40087890625
1969/12/31/18:00:16.662,40,1730346433,5202476,RU_myo,0.7251348086987041,0.4459456996929909,0.3275924678691873,0.4098720741087372,37.6875,4.375,5.625,-0.134765625,0.970703125,0.33740234375
1969/12/31/18:00:16.678,41,1730346433,21747674,RU_myo,0.7228879355402734,0.44906582299837805,0.32912368052293794,0.4092071873564125,21.625,1.0625,5.1875,-0.1220703125,0.91748046875,0.34912109375
1969/12/31/18:00:16.701,42,1730346433,44212191,RU_myo,0.7212192012235855,0.45137237585040746,0.32850387110573265,0.4101110200593493,16.75,-1.0625,11.75,-0.06201171875,0.81005859375,0.42431640625
1969/12/31/18:00:16.722,43,1730346433,65204797,RU_myo,0.7200518646264275,0.4531376657613459,0.32734069254823517,0.41114430449466943,9.1875,-2.875,11.375,-0.0673828125,0.89990234375,0.42431640625
1969/12/31/18:00:16.738,44,1730346433,81587040,RU_myo,0.7200112572192222,0.452967407580862,0.32619024742111935,0.4123157038416282,-9.4375,-2.875,9.8125,-0.13916015625,0.97705078125,0.33837890625
1969/12/31/18:00:16.768,45,1730346433,111692554,RU_myo,0.7200740852347159,0.4526023007557361,0.3245430118837827,0.4139037358630676,-14.25,-2.8125,10.9375,-0.10791015625,0.9306640625,0.2919921875
1969/12/31/18:00:16.782,46,1730346433,125393231,RU_myo,0.720431049467066,0.45180298467806684,0.32252458403659895,0.4157295499381672,-12.0,-1.5,8.25,-0.060546875,0.94677734375,0.40625
1969/12/31/18:00:16.798,47,1730346433,141608306,RU_myo,0.7211687778785585,0.4507075967715003,0.32106202045207094,0.4167702425183917,-5.6875,-0.1875,1.25,-0.04833984375,1.01904296875,0.52294921875
1969/12/31/18:00:16.821,48,1730346433,164273946,RU_myo,0.7222085833781513,0.44887778246813087,0.31953701267618506,0.41811433368326034,-15.5,1.5,-0.3125,-0.0322265625,0.99658203125,0.44287109375
1969/12/31/18:00:16.842,49,1730346433,185345424,RU_myo,0.7231767931404346,0.446247935064966,0.31831254019474736,0.4201847606329129,-19.75,6.0625,1.375,-0.0390625,0.92724609375,0.41357421875
1969/12/31/18:00:16.859,50,1730346433,201758853,RU_myo,0.7231264455143449,0.4450337565835307,0.31898867259711033,0.4210455154180764,2.9375,9.0,-0.625,-0.07373046875,0.82080078125,0.47900390625
1969/12/31/18:00:16.881,51,1730346433,224245575,RU_myo,0.7210008722165746,0.44705472300323335,0.3216791903641507,0.4205024558669135,26.5,9.0,0.0625,-0.08154296875,0.79296875,0.419921875
1969/12/31/18:00:16.902,52,1730346433,245284655,RU_myo,0.7173229480101293,0.4514397994794857,0.32496829264856436,0.4195777692836648,37.1875,7.625,4.6875,-0.08349609375,0.87744140625,0.3662109375
1969/12/31/18:00:16.918,53,1730346433,261718246,RU_myo,0.7133027907430538,0.455717836358689,0.3284513363844235,0.4190943831286846,37.6875,9.6875,7.8125,-0.1064453125,0.90234375,0.3671875
1969/12/31/18:00:16.941,54,1730346433,284286432,RU_myo,0.709621545846112,0.4590627598751599,0.3322269115809726,0.4187169967748433,35.375,13.0625,4.8125,-0.103515625,0.93017578125,0.392578125
1969/12/31/18:00:16.962,55,1730346433,305286934,RU_myo,0.7070136651744237,0.46078271245806135,0.33553087433858303,0.41860482739930915,22.75,14.0,0.4375,-0.08740234375,0.92333984375,0.3623046875
1969/12/31/18:00:16.978,56,1730346433,321773902,RU_myo,0.7046452637892573,0.4617672748237813,0.33852760160908013,0.419100344869806,12.3125,15.0625,1.8125,-0.0888671875,0.9033203125,0.2666015625
1969/12/31/18:00:17.001,57,1730346433,344295303,RU_myo,0.7024307655200479,0.4626105988769937,0.34144922682648143,0.41951743582023715,9.5625,13.5,3.75,-0.1337890625,0.90478515625,0.24072265625
1969/12/31/18:00:17.022,58,1730346433,365307643,RU_myo,0.7002462320147819,0.46414507917018843,0.34383603773877847,0.419525135341492,14.6875,9.8125,2.1875,-0.0908203125,0.916015625,0.27685546875
1969/12/31/18:00:17.038,59,1730346433,381782236,RU_myo,0.6981208475545043,0.4657394480056718,0.34628307844510825,0.4192875843186054,14.75,9.625,-0.0625,-0.0810546875,0.9287109375,0.26708984375
1969/12/31/18:00:17.061,60,1730346433,404329429,RU_myo,0.6968776962235548,0.46664009701577264,0.34810313581176605,0.4188468732141572,8.1875,5.4375,-0.5625,-0.1064453125,0.89453125,0.24609375
1969/12/31/18:00:17.075,61,1730346433,418610621,RU_myo,0.6960291202162888,0.4681090347223291,0.34877754914635395,0.418056953815782,5.25,-2.0,0.4375,-0.103515625,0.9365234375,0.22509765625
1969/12/31/18:00:17.098,62,1730346433,441778231,RU_myo,0.6953981290715991,0.4699873250110869,0.3487672175471884,0.4170069356462008,6.8125,-6.625,0.8125,-0.09228515625,0.970703125,0.2568359375
1969/12/31/18:00:17.121,63,1730346433,464290032,RU_myo,0.6955399935247972,0.4709773225131492,0.34822778964975587,0.41610321508192566,2.1875,-6.8125,-2.375,-0.06982421875,0.97265625,0.296875
1969/12/31/18:00:17.135,64,1730346433,478695916,RU_myo,0.6962541170539354,0.47102595084642934,0.34791342747500936,0.41511565267676115,1.125,-5.0625,-5.5625,-0.08251953125,0.982421875,0.34912109375
1969/12/31/18:00:17.158,65,1730346433,501837448,RU_myo,0.6965552936093663,0.47084012748884085,0.3485828322645541,0.41425874322877404,8.6875,1.3125,-7.8125,-0.07470703125,0.935546875,0.41552734375
1969/12/31/18:00:17.181,66,1730346433,524209284,RU_myo,0.6955928029488561,0.4714600570355356,0.35066520296079134,0.4134126056838015,19.8125,7.4375,-5.8125,-0.0830078125,0.8447265625,0.39990234375
1969/12/31/18:00:17.202,67,1730346433,545276238,RU_myo,0.6927181868438351,0.47432487707846,0.3542024529257886,0.4119442279503959,34.9375,9.0625,-1.75,-0.10595703125,0.8623046875,0.337890625
1969/12/31/18:00:17.218,68,1730346433,561759921,RU_myo,0.6889022116328756,0.4781906721541686,0.35873456474981474,0.40994747947247845,40.3125,10.5625,-1.75,-0.134765625,0.9912109375,0.29345703125
1969/12/31/18:00:17.241,69,1730346433,584212145,RU_myo,0.6861312598674997,0.4809816144253979,0.3628115122010869,0.4077356832946266,33.4375,8.6875,-5.3125,-0.13525390625,0.95947265625,0.28662109375
1969/12/31/18:00:17.262,70,1730346433,605255012,RU_myo,0.6837043578866403,0.4834334893725731,0.3656881357109956,0.40634049731732563,22.5,6.5,-3.625,-0.09912109375,0.95068359375,0.21337890625
1969/12/31/18:00:17.278,71,1730346433,621694570,RU_myo,0.6818039727649521,0.4850147150931342,0.3684915473215771,0.4051148583026846,17.9375,7.5625,-4.1875,-0.12548828125,1.03125,0.2353515625
1969/12/31/18:00:17.301,72,1730346433,644286441,RU_myo,0.6803171967528566,0.48634195439859695,0.3718977821474211,0.40290452321600634,26.125,7.0,-9.625,-0.146484375,0.94677734375,0.3125
1969/12/31/18:00:17.322,73,1730346433,665299182,RU_myo,0.6786966201255736,0.48776550871692226,0.37526997216764335,0.4007844237561396,29.25,7.3125,-7.8125,-0.150390625,0.8564453125,0.31689453125
1969/12/31/18:00:17.346,74,1730346433,689146106,RU_myo,0.676741871784605,0.49002288686631273,0.3783821469462223,0.3984030122790761,24.875,2.6875,-1.75,-0.22802734375,0.9873046875,0.212890625
1969/12/31/18:00:17.368,75,1730346433,711761496,RU_myo,0.6768734225021241,0.4900297444176258,0.38119528573593336,0.39547866393644715,6.75,-0.6875,-9.0625,-0.3134765625,1.19677734375,0.2060546875
1969/12/31/18:00:17.382,76,1730346433,725318810,RU_myo,0.6805121712322352,0.48616731938871227,0.38295213582483123,0.3922909430899251,-18.9375,-3.9375,-27.3125,-0.265625,1.15087890625,0.2099609375
1969/12/31/18:00:17.398,77,1730346433,741002145,RU_myo,0.6863045727161566,0.47950984731929264,0.3830707486985591,0.39027316239301896,-35.125,-1.9375,-37.625,-0.13720703125,1.03515625,0.30029296875
1969/12/31/18:00:17.421,78,1730346433,764178054,RU_myo,0.6918140145106246,0.47176905930409546,0.38344588310885336,0.38961080418398775,-38.125,6.875,-37.9375,-0.10595703125,1.03759765625,0.361328125
1969/12/31/18:00:17.442,79,1730346433,785289094,RU_myo,0.6965772421575414,0.4633471648455921,0.38594969349475416,0.38875748819675615,-31.75,17.5,-39.5,-0.17724609375,0.962890625,0.384765625
1969/12/31/18:00:17.458,80,1730346433,801065224,RU_myo,0.7001058467737966,0.4558317753885539,0.3900938506304563,0.38716402668580574,-18.6875,22.0,-39.75,-0.2197265625,0.90087890625,0.3876953125
1969/12/31/18:00:17.481,81,1730346433,824179310,RU_myo,0.7023096527856293,0.4493658668353731,0.39540778122243236,0.38533641908879523,-12.875,25.8125,-38.125,-0.24365234375,0.93115234375,0.32373046875
1969/12/31/18:00:17.503,82,1730346433,846796819,RU_myo,0.7040253568159233,0.4424726731020139,0.4012712585146419,0.38411926221975073,-14.625,31.75,-37.6875,-0.25830078125,0.95751953125,0.326171875
1969/12/31/18:00:17.518,83,1730346433,861119948,RU_myo,0.7057415310057517,0.4350302621932185,0.4076234167147907,0.38278024052387727,-11.9375,36.0,-42.625,-0.22265625,0.84912109375,0.34619140625
1969/12/31/18:00:17.541,84,1730346433,884297577,RU_myo,0.7064548909325157,0.4275108049154432,0.41469280533916636,0.3823426159323724,-10.4375,43.5,-37.6875,-0.25048828125,0.8466796875,0.34521484375
1969/12/31/18:00:17.570,85,1730346433,912850604,RU_myo,0.7064754253978976,0.42032052698202205,0.42160236419762215,0.3827199686577517,-11.5,44.9375,-30.875,-0.3017578125,0.912109375,0.34423828125
1969/12/31/18:00:17.578,86,1730346433,921144866,RU_myo,0.7071510782341763,0.4122046811666286,0.42776994011783404,0.3834547322802845,-24.0625,42.1875,-32.25,-0.314453125,0.962890625,0.2890625
1969/12/31/18:00:17.601,87,1730346433,944235682,RU_myo,0.7090328454876192,0.4024933353258748,0.432890921160313,0.384547772604339,-36.125,40.4375,-37.6875,-0.25927734375,0.8681640625,0.2802734375
1969/12/31/18:00:17.629,88,1730346433,972808513,RU_myo,0.7107325620820367,0.3925997800851649,0.4376462100762799,0.38625177369075303,-36.3125,41.875,-33.875,-0.25927734375,0.79931640625,0.29443359375
1969/12/31/18:00:17.638,89,1730346433,981042693,RU_myo,0.7109087660750407,0.3844779185632937,0.44270810340364647,0.3883233081282227,-25.625,43.125,-22.9375,-0.283203125,0.72216796875,0.28515625
1969/12/31/18:00:17.661,90,1730346434,4288569,RU_myo,0.7097027947059414,0.37856512709781104,0.44808877749516784,0.3901625753642709,-10.4375,43.75,-16.6875,-0.28955078125,0.74755859375,0.32275390625
1969/12/31/18:00:17.683,91,1730346434,26833180,RU_myo,0.7076514536111931,0.37448819700721725,0.4539639317265973,0.391030381422695,-2.8125,40.25,-17.9375,-0.28857421875,0.84521484375,0.2666015625
1969/12/31/18:00:17.705,92,1730346434,47841683,RU_myo,0.7061609003285759,0.36916424282022886,0.45889166295014555,0.3930305157935604,-16.5625,38.6875,-14.0625,-0.32666015625,0.84375,0.228515625
1969/12/31/18:00:17.721,93,1730346434,64283215,RU_myo,0.7045703829063189,0.3650728112416784,0.46255170767253617,0.3954090739380693,-11.5625,33.625,-6.1875,-0.314453125,0.798828125,0.2705078125
1969/12/31/18:00:17.743,94,1730346434,86798913,RU_myo,0.7023831974915112,0.3624534132879633,0.46567145334689664,0.3980395264484353,-4.375,31.6875,-1.4375,-0.26220703125,0.7734375,0.2958984375
1969/12/31/18:00:17.764,95,1730346434,107758560,RU_myo,0.6996107985068997,0.360425908670672,0.4686452373875393,0.40125993625757794,-6.0625,31.0,4.1875,-0.2822265625,0.8037109375,0.24462890625
1969/12/31/18:00:17.781,96,1730346434,124292829,RU_myo,0.6968856671998879,0.3586058767451468,0.4710402639731571,0.4048126254593725,-6.5,27.875,10.75,-0.32373046875,0.7744140625,0.24853515625
1969/12/31/18:00:17.803,97,1730346434,146811110,RU_myo,0.6932219442994227,0.35884932733435826,0.47335882522162753,0.40816898314081534,5.5625,26.0625,17.1875,-0.3046875,0.76123046875,0.26513671875
1969/12/31/18:00:17.825,98,1730346434,167886486,RU_myo,0.6892008899858759,0.35934156756238167,0.4756224723027141,0.4118968741143114,4.0,26.0,20.75,-0.33447265625,0.83447265625,0.25048828125
1969/12/31/18:00:17.841,99,1730346434,184219087,RU_myo,0.6854562162984842,0.36036807667197246,0.47713368146084156,0.41548534856133407,3.0625,20.875,20.4375,-0.298828125,0.84130859375,0.232421875
1969/12/31/18:00:17.865,100,1730346434,208257360,RU_myo,0.6811894017436354,0.362873744925261,0.4778702353271435,0.41945641297332104,9.5625,17.6875,28.4375,-0.2666015625,0.7900390625,0.2470703125
1969/12/31/18:00:17.884,101,1730346434,227777782,RU_myo,0.6767471982964197,0.36520054905812926,0.4783071205782217,0.42410386342234363,6.3125,17.375,35.1875,-0.3125,0.79443359375,0.23876953125
1969/12/31/18:00:17.901,102,1730346434,244157699,RU_myo,0.6730059932812995,0.36708308031867726,0.4777451396166091,0.42903674285999044,-5.0,12.0,34.25,-0.3212890625,0.8994140625,0.185546875
1969/12/31/18:00:17.923,103,1730346434,266719816,RU_myo,0.6698497953517849,0.36898505676157645,0.4762928697949679,0.43393130992854373,-5.75,7.9375,33.9375,-0.2890625,0.873046875,0.22412109375
1969/12/31/18:00:17.945,104,1730346434,287822009,RU_myo,0.6662823915491448,0.37189983617707395,0.47462549255094816,0.4387356019105215,2.375,6.875,37.375,-0.25146484375,0.79833984375,0.2529296875
1969/12/31/18:00:17.961,105,1730346434,304358475,RU_myo,0.6629481249339529,0.37429314999493596,0.47262750495935896,0.44387798218577534,-8.25,4.8125,38.9375,-0.29443359375,0.921875,0.18896484375
1969/12/31/18:00:17.984,106,1730346434,326822334,RU_myo,0.6607029050288963,0.3762539455467588,0.46958494534250733,0.44877011804993033,-13.375,-1.625,35.875,-0.29541015625,0.9599609375,0.21630859375
1969/12/31/18:00:18.005,107,1730346434,347787310,RU_myo,0.6584164115429729,0.3789846573904069,0.4662689318417327,0.45326784760527644,-6.6875,-3.625,36.25,-0.23095703125,0.84375,0.23486328125
1969/12/31/18:00:18.021,108,1730346434,364293247,RU_myo,0.6553680078595476,0.38234378329442176,0.46291431234113894,0.45827540309299464,-3.6875,-1.9375,40.0625,-0.19580078125,0.875,0.25
1969/12/31/18:00:18.043,109,1730346434,386730137,RU_myo,0.6528082684619305,0.38509278781919776,0.4594378528950866,0.4631001713717314,-8.375,-2.875,37.375,-0.2109375,0.9423828125,0.2490234375
1969/12/31/18:00:18.065,110,1730346434,407919485,RU_myo,0.6507297616866113,0.38771554696870414,0.4555291446831611,0.46767577469682164,-9.0625,-5.8125,36.9375,-0.20458984375,0.9052734375,0.2646484375
1969/12/31/18:00:18.081,111,1730346434,424244060,RU_myo,0.6484210297705973,0.3910791243283646,0.4513860034974647,0.4720783436172268,-4.8125,-7.75,37.6875,-0.16064453125,0.87939453125,0.26904296875
1969/12/31/18:00:18.103,112,1730346434,446740828,RU_myo,0.645967698858109,0.3939408039714859,0.44753237910116744,0.4767086580442059,-8.4375,-5.5,37.875,-0.1767578125,0.94775390625,0.2607421875
1969/12/31/18:00:18.124,113,1730346434,467743380,RU_myo,0.6440118442554578,0.3963807143014826,0.4430137395134217,0.48152871190705204,-12.625,-7.0625,38.1875,-0.17919921875,0.99072265625,0.291015625
1969/12/31/18:00:18.147,114,1730346434,490363631,RU_myo,0.6425800761321181,0.3987207235959908,0.4382753820298858,0.48582642974594165,-12.5625,-9.9375,33.625,-0.1298828125,0.93115234375,0.28662109375
1969/12/31/18:00:18.165,115,1730346434,508135557,RU_myo,0.6413999522338111,0.40060029372958716,0.4333173069002498,0.4902668839305263,-18.25,-10.3125,33.8125,-0.14697265625,0.98779296875,0.2744140625
1969/12/31/18:00:18.185,116,1730346434,527820271,RU_myo,0.6408315693154496,0.40193122049168833,0.4280552238888702,0.4945249428130082,-19.625,-11.5625,30.875,-0.1337890625,1.00146484375,0.32763671875
1969/12/31/18:00:18.201,117,1730346434,544298670,RU_myo,0.6399991110606414,0.40389834219249066,0.4233699412796003,0.49802124436278244,-9.25,-11.125,28.125,-0.09716796875,0.9111328125,0.35888671875
1969/12/31/18:00:18.223,118,1730346434,566788657,RU_myo,0.6383341231715495,0.4065733022036423,0.41994059738193346,0.500876822981998,-1.0625,-9.0625,28.75,-0.109375,0.9052734375,0.33251953125
1969/12/31/18:00:18.245,119,1730346434,587921810,RU_myo,0.6363947908814013,0.40932893416944915,0.41689779605984756,0.5036345117554615,-3.5625,-7.875,27.9375,-0.10986328125,1.02685546875,0.30322265625
1969/12/31/18:00:18.260,120,1730346434,603663083,RU_myo,0.6349924682829314,0.41128321169762494,0.41384686484266797,0.5063214961460075,-4.625,-6.125,22.75,-0.0791015625,1.06103515625,0.36181640625
1969/12/31/18:00:18.284,121,1730346434,626816350,RU_myo,0.6341881584146839,0.4124359370941308,0.41078790241875096,0.5088764847645062,-8.875,-5.8125,19.5625,-0.076171875,0.98046875,0.34130859375
1969/12/31/18:00:18.304,122,1730346434,647818591,RU_myo,0.6337018598508654,0.41347489873143534,0.40767623983278073,0.5111365222877235,-12.5625,-7.625,18.0,-0.0732421875,0.97216796875,0.28759765625
1969/12/31/18:00:18.320,123,1730346434,663575740,RU_myo,0.6331538448422138,0.4147575798421713,0.4049913969466971,0.5129077179416873,-7.75,-7.6875,15.6875,-0.06591796875,0.974609375,0.31298828125
1969/12/31/18:00:18.344,124,1730346434,686785629,RU_myo,0.6320639071652188,0.41689970892693806,0.40316582393300526,0.5139524962173966,3.25,-7.25,14.3125,-0.0517578125,0.94384765625,0.34033203125
1969/12/31/18:00:18.365,125,1730346434,707955367,RU_myo,0.6304876734093956,0.4199588724035862,0.40213503653994565,0.5142054565592747,11.5,-7.75,12.625,-0.03857421875,0.92138671875,0.32080078125
1969/12/31/18:00:18.380,126,1730346434,723562141,RU_myo,0.6285157252105958,0.4232425015645598,0.401329600200026,0.5145564303705277,13.75,-6.0,13.4375,-0.0205078125,0.94775390625,0.32763671875
1969/12/31/18:00:18.404,127,1730346434,746773439,RU_myo,0.6265607819867626,0.4261101625961607,0.40041293032958236,0.5152874935735265,12.0625,-4.3125,13.6875,-0.01513671875,0.95556640625,0.33837890625
1969/12/31/18:00:18.432,128,1730346434,775286837,RU_myo,0.6256981262915974,0.42787473078764005,0.39894283030356853,0.5160132630640099,-0.9375,-7.1875,12.6875,-0.0615234375,1.044921875,0.296875
1969/12/31/18:00:18.440,129,1730346434,783471466,RU_myo,0.6269850057956581,0.4276950871894642,0.3958331155164372,0.5169940614378139,-20.1875,-11.875,8.375,-0.08154296875,1.01318359375,0.27197265625
1969/12/31/18:00:18.464,130,1730346434,807152753,RU_myo,0.628872974516231,0.42775325685817206,0.3918019628670957,0.5177230486117317,-18.0625,-16.3125,5.1875,-0.02099609375,0.91064453125,0.3134765625
1969/12/31/18:00:18.485,131,1730346434,827865159,RU_myo,0.6298009747906421,0.4286162478173957,0.3889408617334727,0.5180384641450068,-6.125,-13.75,6.0625,-0.02197265625,0.8935546875,0.34814453125
1969/12/31/18:00:18.500,132,1730346434,843598680,RU_myo,0.6300996555006189,0.42934427751538823,0.3866784188313882,0.5187655693209106,-4.5625,-9.0625,8.8125,-0.0458984375,0.93310546875,0.35546875
1969/12/31/18:00:18.531,133,1730346434,874204596,RU_myo,0.6301797810935473,0.4300897653608228,0.38528620479101805,0.5190864837678735,-2.6875,-6.75,6.0625,-0.041015625,0.9951171875,0.34619140625
1969/12/31/18:00:18.546,134,1730346434,889182365,RU_myo,0.6307711627715358,0.4305040653210414,0.38362654906319943,0.5192539463612789,-3.125,-7.875,3.625,-0.03369140625,0.9306640625,0.36474609375
1969/12/31/18:00:18.561,135,1730346434,904288751,RU_myo,0.6313551238342116,0.43091329991004773,0.38190148973614285,0.5194763591408521,-5.75,-7.9375,2.9375,-0.015625,0.91552734375,0.3251953125
1969/12/31/18:00:18.583,136,1730346434,926682380,RU_myo,0.6322396490801682,0.43001818186616964,0.37966119108695173,0.5207828428221659,-13.625,-4.125,5.4375,-0.03076171875,0.90185546875,0.34912109375
1969/12/31/18:00:18.612,137,1730346434,955332628,RU_myo,0.6325390620756656,0.4292817932623908,0.37807072763646365,0.5221819623716413,-6.25,-0.625,6.3125,-0.025390625,0.927734375,0.41455078125
1969/12/31/18:00:18.628,138,1730346434,971688931,RU_myo,0.6322481351402737,0.4289862805334856,0.3771026239521733,0.5234755751074519,-2.3125,1.6875,6.1875,-0.01220703125,0.91357421875,0.3994140625
1969/12/31/18:00:18.657,139,1730346435,330660,RU_myo,0.6323109899480152,0.42843815411189484,0.37600499064386267,0.5246368335363636,-10.1875,0.375,5.1875,-0.021484375,0.95068359375,0.32080078125
1969/12/31/18:00:18.666,140,1730346435,9227921,RU_myo,0.6328394952535564,0.42793573507163235,0.37434458182774516,0.5255961510058231,-14.0,-3.3125,4.6875,-0.021484375,0.94287109375,0.296875
1969/12/31/18:00:18.681,141,1730346435,24303373,RU_myo,0.6327111613087105,0.4282977251498381,0.37269287583937744,0.5266285838097198,-2.625,-3.5625,7.75,-0.00146484375,0.82568359375,0.3583984375
1969/12/31/18:00:18.711,142,1730346435,54231021,RU_myo,0.6307241626953926,0.4311240453999378,0.3727700049918477,0.5266513186621355,15.875,-3.3125,9.375,0.02197265625,0.8994140625,0.34423828125
1969/12/31/18:00:18.741,143,1730346435,84056073,RU_myo,0.6287093564930987,0.4330159393167031,0.37380738826832394,0.5267729851005284,12.3125,3.6875,5.375,0.02392578125,1.0732421875,0.36376953125
1969/12/31/18:00:18.743,144,1730346435,86541373,RU_myo,0.6277953930169892,0.43320018514745473,0.3760668367892728,0.5261029161315925,8.9375,8.25,-5.875,-0.005859375,1.22900390625,0.41064453125
1969/12/31/18:00:18.763,145,1730346435,106642650,RU_myo,0.630296759691915,0.42965900556569725,0.37466216453505463,0.5270174533391433,-24.1875,2.125,-7.8125,-0.02978515625,0.904296875,0.35302734375
1969/12/31/18:00:18.786,146,1730346435,129283165,RU_myo,0.6322455533631298,0.4276416631455964,0.37282832978779656,0.527624113078866,-19.75,-2.875,-4.5,-0.0009765625,0.76953125,0.283203125
1969/12/31/18:00:18.825,147,1730346435,167976349,RU_myo,0.6307735151927295,0.42946801363422143,0.3728851755672909,0.5278623339836196,12.9375,0.875,2.5625,0.08544921875,0.87353515625,0.37353515625
1969/12/31/18:00:18.829,148,1730346435,172659861,RU_myo,0.6283302727433125,0.43013827783389585,0.3735555924994242,0.529753102500409,10.6875,11.9375,9.6875,0.0498046875,0.900390625,0.40478515625
1969/12/31/18:00:18.846,149,1730346435,189669573,RU_myo,0.6269760464947833,0.42884868600782206,0.37446437356361917,0.5317577216766504,0.6875,13.75,9.75,-0.0673828125,0.904296875,0.392578125
1969/12/31/18:00:18.867,150,1730346435,210285100,RU_myo,0.6258518271827528,0.4277742714226794,0.3757064270271963,0.5330697363490666,-0.0625,12.0625,6.25,-0.064453125,0.89599609375,0.33837890625
1969/12/31/18:00:18.891,151,1730346435,234357740,RU_myo,0.6248606316926731,0.4266656066749815,0.3765522357050015,0.5345222772035497,-5.8125,12.625,2.0625,0.0078125,0.95556640625,0.3017578125
1969/12/31/18:00:18.906,152,1730346435,249095144,RU_myo,0.6250805014439572,0.42408547251563466,0.3757441233169613,0.5368819539792059,-21.6875,12.4375,-1.375,0.0703125,0.99462890625,0.31640625
1969/12/31/18:00:18.927,153,1730346435,270169045,RU_myo,0.6265482817512804,0.41975377823707305,0.3726329527609904,0.5407297835396583,-42.1875,10.5625,1.75,0.07275390625,0.9609375,0.2998046875
1969/12/31/18:00:18.943,154,1730346435,286642963,RU_myo,0.6292514240133315,0.41378362628638804,0.36794331011275216,0.5453837882975183,-62.625,7.875,4.3125,0.02734375,1.0322265625,0.279296875
1969/12/31/18:00:18.966,155,1730346435,309149429,RU_myo,0.6337020015099046,0.4070049071535392,0.362568858502103,0.5489194856076451,-72.0,1.0625,-3.625,-0.00439453125,1.1337890625,0.30517578125
1969/12/31/18:00:18.987,156,1730346435,330162059,RU_myo,0.6396233512046442,0.3996196278592238,0.35719781002477125,0.5509953231533852,-72.1875,-1.8125,-19.0,0.0556640625,1.1494140625,0.37939453125
1969/12/31/18:00:19.003,157,1730346435,346667469,RU_myo,0.6466467904112216,0.39119872378190673,0.35280521508182566,0.5516701615760451,-70.75,1.3125,-34.625,0.09326171875,1.12939453125,0.42626953125
1969/12/31/18:00:19.026,158,1730346435,369141944,RU_myo,0.6546964818992516,0.38179437761325924,0.34968824769726015,0.5507483084259693,-72.125,2.75,-47.875,0.06201171875,1.15673828125,0.4248046875
1969/12/31/18:00:19.047,159,1730346435,390257037,RU_myo,0.664032224938082,0.3719044348329565,0.34724508940828647,0.5478769419104903,-75.3125,-0.5625,-60.5,0.025390625,1.13232421875,0.369140625
1969/12/31/18:00:19.063,160,1730346435,406663017,RU_myo,0.6747923287568219,0.3613541914283479,0.3449955895190916,0.5431910387704169,-80.1875,-4.75,-74.125,0.00537109375,1.07568359375,0.3076171875
1969/12/31/18:00:19.087,161,1730346435,430625755,RU_myo,0.6872417103006235,0.35018258211161535,0.3429189029637537,0.5361693918892155,-78.5,-10.3125,-89.8125,-0.00927734375,1.00048828125,0.3291015625
1969/12/31/18:00:19.107,162,1730346435,450304004,RU_myo,0.7017503000824709,0.33790464132004516,0.34052926190833305,0.5266942106124765,-69.4375,-18.8125,-103.0,-0.01806640625,0.943359375,0.365234375
1969/12/31/18:00:19.124,163,1730346435,466706102,RU_myo,0.7168351671621387,0.32667760683342695,0.33796971394556896,0.5149811227304977,-61.6875,-27.5625,-111.4375,-0.01611328125,0.83203125,0.4033203125
1969/12/31/18:00:19.146,164,1730346435,489108926,RU_myo,0.7314228964239073,0.3173995711761928,0.33601627679325796,0.5013692457002399,-46.3125,-33.5,-115.125,-0.02783203125,0.7216796875,0.3994140625
1969/12/31/18:00:19.167,165,1730346435,510207651,RU_myo,0.7447959635930707,0.31251887670845124,0.3350422098149783,0.48513672501538485,-18.1875,-44.6875,-115.6875,-0.06201171875,0.67578125,0.3544921875
1969/12/31/18:00:19.184,166,1730346435,526868822,RU_myo,0.7571469502674197,0.31252760281918646,0.3333424294913237,0.4668381067111598,6.1875,-63.625,-110.5,-0.0888671875,0.61328125,0.3037109375
1969/12/31/18:00:19.206,167,1730346435,549017518,RU_myo,0.7686581161353593,0.3173392794241033,0.3299742536192926,0.4467409475101004,27.4375,-85.3125,-103.875,-0.09521484375,0.615234375,0.2900390625
1969/12/31/18:00:19.235,168,1730346435,577770375,RU_myo,0.7799405911914101,0.3271013952257604,0.3233170536500939,0.42445663414815044,45.375,-116.0625,-97.625,-0.10107421875,0.58447265625,0.271484375
1969/12/31/18:00:19.243,169,1730346435,585993717,RU_myo,0.7911296376265111,0.3396223519600269,0.31178845683174283,0.401943419780154,46.8125,-144.5,-84.25,-0.046875,0.52734375,0.26220703125
1969/12/31/18:00:19.266,170,1730346435,609137548,RU_myo,0.8025516130481278,0.35390890268124775,0.2934184365623936,0.38021706705786346,37.4375,-177.875,-65.8125,0.0263671875,0.50732421875,0.2333984375
1969/12/31/18:00:19.288,171,1730346435,631742909,RU_myo,0.8139978655038597,0.36915560067241626,0.26679549116057066,0.3604882568735599,20.0625,-213.1875,-39.0625,0.09765625,0.49755859375,0.21630859375
1969/12/31/18:00:19.303,172,1730346435,645958406,RU_myo,0.8255935454141338,0.38124037295997926,0.2321867401120335,0.3451671964599236,-17.875,-234.25,-7.5625,0.20556640625,0.41455078125,0.19287109375
1969/12/31/18:00:19.326,173,1730346435,669026891,RU_myo,0.8376514658893635,0.3886414693082837,0.19117717635833903,0.3327898995867383,-57.75,-248.3125,12.0625,0.3447265625,0.4033203125,0.17822265625
1969/12/31/18:00:19.347,174,1730346435,690280096,RU_myo,0.8495624362769879,0.39227945814729515,0.14630369708714275,0.32086714042015413,-83.0,-257.8125,18.5,0.39990234375,0.36083984375,0.1943359375
1969/12/31/18:00:19.363,175,1730346435,706005237,RU_myo,0.8601639903122139,0.3949844721338587,0.09900553450797693,0.30708806665205424,-85.8125,-270.875,17.0,0.427734375,0.32958984375,0.30810546875
1969/12/31/18:00:19.386,176,1730346435,729149444,RU_myo,0.8679168364361683,0.39901345803384436,0.04730540461621988,0.2920116847535431,-79.1875,-296.8125,26.5625,0.42431640625,0.2236328125,0.27587890625
1969/12/31/18:00:19.415,177,1730346435,757764342,RU_myo,0.8698828598616827,0.4079311734233124,-0.01153658413541913,0.277061139633161,-53.0,-337.4375,53.25,0.5791015625,0.2255859375,0.32666015625
1969/12/31/18:00:19.430,178,1730346435,772899865,RU_myo,0.8649554300175815,0.42158260921116614,-0.073671667774414,0.2620929092156866,-15.4375,-363.25,70.75,0.71826171875,0.22900390625,0.564453125
1969/12/31/18:00:19.446,179,1730346435,789010004,RU_myo,0.8527474058867204,0.4375739855988761,-0.14056812509892758,0.24817629033966107,4.875,-389.9375,96.8125,0.86474609375,0.29931640625,0.4521484375
1969/12/31/18:00:19.467,180,1730346435,810358983,RU_myo,0.8339216583977647,0.45437804312055047,-0.20881613185322448,0.23347609013112647,23.0625,-407.0625,106.5625,0.95166015625,0.46142578125,0.52099609375
1969/12/31/18:00:19.483,181,1730346435,826276039,RU_myo,0.8086305712033425,0.47273881144096375,-0.27467071032722234,0.21723401290101874,49.375,-411.5,99.375,1.1337890625,0.50244140625,0.56494140625
1969/12/31/18:00:19.514,182,1730346435,856802578,RU_myo,0.7769976896776142,0.48994190534502824,-0.3386318289341244,0.20386270883921692,68.5,-404.0625,114.75,1.29248046875,0.3857421875,0.478515625
1969/12/31/18:00:19.536,183,1730346435,879726937,RU_myo,0.7442233216070884,0.5009911444067072,-0.398327023440323,0.19098456272521772,49.875,-381.25,122.375,1.34765625,0.62255859375,0.4638671875
1969/12/31/18:00:19.557,184,1730346435,900372857,RU_myo,0.7126291092523662,0.5062566023245504,-0.4522982183777331,0.17689072022384217,25.375,-352.875,113.0,1.52880859375,0.7265625,0.40380859375
1969/12/31/18:00:19.566,185,1730346435,909362577,RU_myo,0.6845894642043572,0.5054462689975286,-0.5000139881207288,0.16077109920776364,-7.4375,-320.9375,99.25,1.697265625,0.763671875,0.458984375
1969/12/31/18:00:19.591,186,1730346435,933800763,RU_myo,0.6612675276349209,0.5003147428487582,-0.540781825258021,0.14129908865376056,-39.625,-289.3125,77.625,1.53515625,0.8603515625,0.55029296875
1969/12/31/18:00:19.617,187,1730346435,960339551,RU_myo,0.6426498066163161,0.49512538999634875,-0.5718478524255167,0.12182819014209963,-45.25,-238.3125,46.4375,1.384765625,0.79052734375,0.515625
1969/12/31/18:00:19.626,188,1730346435,969307736,RU_myo,0.6325942329843344,0.48946093731198154,-0.5902951396363852,0.10864702187496286,-41.5625,-146.5,29.4375,1.41259765625,0.78955078125,0.53369140625
1969/12/31/18:00:19.639,189,1730346435,982201814,RU_myo,0.6372038587151574,0.48199222914498063,-0.5917939285538474,0.10693306134760112,-17.1875,-45.875,8.8125,1.458984375,0.63427734375,0.63232421875
1969/12/31/18:00:19.657,190,1730346436,124206,RU_myo,0.6469931676951597,0.4775542022685783,-0.5831483702037317,0.11523802835928883,13.125,46.0,3.125,1.25,0.5078125,0.52734375
1969/12/31/18:00:19.674,191,1730346436,16991416,RU_myo,0.6524378386397679,0.47982167176978346,-0.5731491537868295,0.12488425651201844,44.4375,58.4375,-2.625,0.85498046875,0.47900390625,0.2392578125
1969/12/31/18:00:19.700,192,1730346436,43683249,RU_myo,0.6532797568862261,0.48933418770035264,-0.5620293377004923,0.13379325675928314,78.1875,49.0,-25.625,0.771484375,0.50341796875,0.11572265625
1969/12/31/18:00:19.738,193,1730346436,81753263,RU_myo,0.65196577303228,0.5010285555908993,-0.5510154464459299,0.1424534838286221,88.875,43.125,-36.9375,0.8125,0.43701171875,0.04833984375
1969/12/31/18:00:19.741,194,1730346436,84045726,RU_myo,0.648266346379084,0.5134372004275355,-0.5421242527576522,0.1491116358350534,87.25,26.375,-40.9375,0.8056640625,0.4091796875,-0.0400390625
1969/12/31/18:00:19.751,195,1730346436,94651828,RU_myo,0.6422151486466362,0.5250270584164953,-0.5365017255848633,0.15515214862761348,84.6875,7.25,-33.625,0.86572265625,0.375,-0.08447265625
1969/12/31/18:00:19.774,196,1730346436,117225101,RU_myo,0.6359941834648607,0.5345525008431142,-0.5321721003483801,0.1629658800241054,81.8125,6.6875,-24.9375,0.96240234375,0.29052734375,-0.06396484375
1969/12/31/18:00:19.790,197,1730346436,133570515,RU_myo,0.6311622806411756,0.5419292031537567,-0.5274028882139443,0.17260680104953532,74.3125,22.875,-13.9375,0.95703125,0.2880859375,-0.119140625
1969/12/31/18:00:19.815,198,1730346436,158052769,RU_myo,0.6263551975091005,0.5495104115352204,-0.5235089192199917,0.17792100962181134,58.0,14.25,-14.5,0.7861328125,0.4033203125,-0.23828125
1969/12/31/18:00:19.837,199,1730346436,180584449,RU_myo,0.6221869382607811,0.5553540269996907,-0.5216018809472862,0.17999110073877217,37.875,2.5625,-12.0625,0.81591796875,0.4833984375,-0.28125
1969/12/31/18:00:19.850,200,1730346436,193612266,RU_myo,0.6192389087444777,0.5578338479069277,-0.5222482112585265,0.1806138916683006,13.6875,-2.9375,-3.0625,0.86767578125,0.4638671875,-0.31689453125
1969/12/31/18:00:19.875,201,1730346436,218056892,RU_myo,0.6166298669078277,0.5577317355046748,-0.525627676314977,0.1800512825277731,-6.375,-7.125,8.875,0.91015625,0.48486328125,-0.42919921875
1969/12/31/18:00:19.897,202,1730346436,240075113,RU_myo,0.6145814292892436,0.557572882764648,-0.5285803136006405,0.1788994109888542,-9.3125,-6.4375,5.375,0.9912109375,0.53759765625,-0.4423828125
1969/12/31/18:00:19.920,203,1730346436,263107919,RU_myo,0.6134997697670487,0.557893532551072,-0.5291443144075759,0.1799420277856193,2.4375,4.3125,0.375,0.95068359375,0.46826171875,-0.3095703125
1969/12/31/18:00:19.947,204,1730346436,290850702,RU_myo,0.6145156109365693,0.5578737270520703,-0.527233397623171,0.18213295421481154,4.6875,16.8125,-1.625,0.8447265625,0.45556640625,-0.17919921875
1969/12/31/18:00:19.954,205,1730346436,297031711,RU_myo,0.6143398035256334,0.5592231773374917,-0.5253475100789993,0.18402727348532388,10.875,14.5625,-2.625,0.81689453125,0.482421875,-0.23486328125
1969/12/31/18:00:19.976,206,1730346436,319612603,RU_myo,0.6124196876672768,0.5614559205552402,-0.5246521462216376,0.18560576741042345,14.0625,8.6875,-1.25,0.81689453125,0.4736328125,-0.3291015625
1969/12/31/18:00:20.008,207,1730346436,351307805,RU_myo,0.610880201317006,0.5629644381241754,-0.5243266316260075,0.18702407442399147,9.125,8.5,-0.9375,0.80078125,0.42822265625,-0.32568359375
1969/12/31/18:00:20.016,208,1730346436,359350124,RU_myo,0.6107331514259468,0.5628193473214725,-0.5240000104928795,0.18884752853406747,1.5,13.0625,2.8125,0.771484375,0.39306640625,-0.27490234375
1969/12/31/18:00:20.038,209,1730346436,381190445,RU_myo,0.6114028000329049,0.562085293551265,-0.523388141188196,0.19055600895504934,-2.75,16.5625,4.3125,0.77197265625,0.42333984375,-0.26025390625
1969/12/31/18:00:20.067,210,1730346436,410685474,RU_myo,0.6123322006486125,0.5612434793624393,-0.5226675273279574,0.19202522958936752,-4.1875,16.5625,4.1875,0.79931640625,0.44970703125,-0.26171875
1969/12/31/18:00:20.084,211,1730346436,427489045,RU_myo,0.6131600031417965,0.5601203811300285,-0.5225226743875094,0.1930544584847205,-7.0625,13.9375,5.25,0.81640625,0.458984375,-0.2724609375
1969/12/31/18:00:20.089,212,1730346436,432148860,RU_myo,0.6134794266513479,0.5589126564368115,-0.5231451761843302,0.1938524185697623,-7.375,8.8125,7.1875,0.822265625,0.447265625,-0.26904296875
1969/12/31/18:00:20.122,213,1730346436,464996289,RU_myo,0.6137188461744943,0.5571383021263834,-0.524483942832166,0.19458335968217683,-9.1875,4.6875,9.5625,0.83935546875,0.431640625,-0.24072265625
1969/12/31/18:00:20.134,214,1730346436,477143034,RU_myo,0.6142109935621403,0.5550665582285703,-0.5258300416911297,0.19531702070941556,-9.4375,3.125,10.875,0.8603515625,0.44873046875,-0.19775390625
1969/12/31/18:00:20.152,215,1730346436,495053759,RU_myo,0.6151205117583639,0.5529858936823553,-0.526618354380945,0.1962306454954495,-8.5625,5.8125,11.1875,0.85302734375,0.46826171875,-0.1708984375
1969/12/31/18:00:20.171,216,1730346436,514571790,RU_myo,0.6169423067594489,0.5507803102688233,-0.5263662894235741,0.1973873585338403,-9.0,11.3125,9.375,0.86376953125,0.49462890625,-0.14453125
1969/12/31/18:00:20.205,217,1730346436,548154252,RU_myo,0.6196402726198981,0.5482278298534204,-0.5254002626784952,0.19861204167702406,-11.9375,17.375,7.5,0.8818359375,0.50390625,-0.13671875
1969/12/31/18:00:20.233,218,1730346436,576650959,RU_myo,0.6228920762302185,0.5451907912678404,-0.524132705398225,0.20014337265643178,-14.0625,20.9375,7.375,0.8857421875,0.48681640625,-0.1259765625
1969/12/31/18:00:20.236,219,1730346436,579093558,RU_myo,0.6262592209300867,0.5419644856372553,-0.5227372288543141,0.20203879349693832,-14.6875,24.1875,6.9375,0.91650390625,0.4677734375,-0.130859375
1969/12/31/18:00:20.254,220,1730346436,597238666,RU_myo,0.6299079156450955,0.538839833266948,-0.5208947821817098,0.20380450875377654,-15.5625,26.9375,3.75,0.90625,0.45458984375,-0.13134765625
1969/12/31/18:00:20.287,221,1730346436,629873442,RU_myo,0.6337394611086594,0.5360814491878413,-0.5184419707846435,0.20544804257842122,-14.5,28.9375,2.125,0.85009765625,0.45263671875,-0.11962890625
1969/12/31/18:00:20.291,222,1730346436,634668005,RU_myo,0.6372160826704646,0.5337600232713806,-0.5156933603910685,0.20764455107709967,-9.375,30.0625,2.0625,0.8466796875,0.44580078125,-0.1025390625
1969/12/31/18:00:20.314,223,1730346436,657094565,RU_myo,0.6405179826735524,0.5316897414779221,-0.5127683983648288,0.2100269085553358,-7.8125,31.0625,-0.125,0.91796875,0.44775390625,-0.11083984375
1969/12/31/18:00:20.338,224,1730346436,681154532,RU_myo,0.643615594381724,0.5292967695095601,-0.5105589802753079,0.21197505540898315,-11.9375,28.9375,0.875,0.8955078125,0.427734375,-0.13037109375
