time,.header.seq,.header.stamp.secs,.header.stamp.nsecs,.header.frame_id,.orientation.x,.orientation.y,.orientation.z,.orientation.w,.angular_velocity.x,.angular_velocity.y,.angular_velocity.z,.linear_acceleration.x,.linear_acceleration.y,.linear_acceleration.z
1969/12/31/18:00:08.188,1,1731182878,36633736,RL_myo,0.8720275035554108,0.3161076811726375,-0.3679276119151687,-0.0653700186398715,101.375,20.5,-54.6875,0.93115234375,0.5498046875,0.8505859375
1969/12/31/18:00:08.202,2,1731182878,51558707,RL_myo,0.8649816679120912,0.3467372886966264,-0.3565638515341827,-0.0666497305503812,161.375,52.875,-98.9375,1.134765625,0.7998046875,0.84619140625
1969/12/31/18:00:08.224,3,1731182878,73909823,RL_myo,0.8575574971275272,0.3830626940905595,-0.3365531700470594,-0.0677500940791142,183.3125,98.5625,-124.4375,1.17236328125,1.326171875,0.75732421875
1969/12/31/18:00:08.246,4,1731182878,96467107,RL_myo,0.8570230328729823,0.4080945800006239,-0.3054910817982534,-0.0751367675711588,93.0625,143.3125,-145.375,0.4619140625,1.69140625,0.70751953125
1969/12/31/18:00:08.268,5,1731182878,118939932,RL_myo,0.8647718405702549,0.4126099408706185,-0.2705158665589617,-0.0935086434044064,-52.0,140.3125,-162.8125,-0.240234375,1.55078125,0.36181640625
1969/12/31/18:00:08.282,6,1731182878,133994627,RL_myo,0.8765629295006043,0.4030321720975204,-0.234690095670902,-0.1188404723722356,-143.5,128.5,-180.125,-0.2392578125,1.07568359375,0.060546875
1969/12/31/18:00:08.306,7,1731182878,158045644,RL_myo,0.8829456797532534,0.4025319202248518,-0.1962915322885706,-0.1408709130976433,-78.25,148.875,-190.0625,-0.0859375,0.794921875,0.22021484375
1969/12/31/18:00:08.318,8,1731182878,171720508,RL_myo,0.8745900643728589,0.4298180775569594,-0.1588776563306966,-0.1584504017804411,106.25,158.0,-208.0625,-0.3212890625,0.2099609375,0.07470703125
1969/12/31/18:00:08.340,9,1731182878,193936925,RL_myo,0.85019021360191,0.481035901600736,-0.1272630192662777,-0.1720034476222401,274.3125,147.625,-211.3125,-0.19140625,0.78759765625,0.337890625
1969/12/31/18:00:08.356,10,1731182878,210566542,RL_myo,0.8233140203953372,0.5281441336259807,-0.0982068543862478,-0.183229942117785,262.875,133.8125,-188.625,-0.52392578125,1.1689453125,0.255859375
1969/12/31/18:00:08.376,11,1731182878,231459978,RL_myo,0.80311097660089,0.559394444486028,-0.066468145122235,-0.1940943080704385,166.1875,135.1875,-179.5625,-0.57666015625,1.29443359375,0.31201171875
1969/12/31/18:00:08.407,12,1731182878,263724105,RL_myo,0.788233321437453,0.5788149750032032,-0.0327769315171064,-0.2063664906132901,97.9375,129.8125,-182.4375,-0.56640625,0.830078125,0.47412109375
1969/12/31/18:00:08.414,13,1731182878,270534371,RL_myo,0.773444925163461,0.5958309153602988,0.0021362509770139,-0.216249634616015,87.3125,141.625,-175.125,-0.54052734375,0.54150390625,0.44384765625
1969/12/31/18:00:08.434,14,1731182878,291506872,RL_myo,0.7585596701555124,0.61524633691403,0.0398567319449267,-0.2108805648847196,96.4375,208.6875,-113.0625,-0.81494140625,0.43408203125,0.49072265625
1969/12/31/18:00:08.456,15,1731182878,313965944,RL_myo,0.7398596941138796,0.6382289383429358,0.0678148766735847,-0.2016744847250439,137.125,185.75,-62.3125,-1.0166015625,0.35205078125,0.494140625
1969/12/31/18:00:08.472,16,1731182878,330601861,RL_myo,0.720214917532769,0.6612549505550864,0.0829467858412739,-0.1927490431837698,155.9375,131.9375,-17.625,-1.0068359375,0.345703125,0.4833984375
1969/12/31/18:00:08.492,17,1731182878,351476228,RL_myo,0.7025453892626118,0.6812431876246751,0.086063336130346,-0.1868978264050493,149.9375,67.0625,13.3125,-0.865234375,0.40625,0.43310546875
1969/12/31/18:00:08.522,18,1731182878,381889770,RL_myo,0.6910267133067058,0.6940786818311591,0.0775200005211126,-0.1863531981031157,112.1875,-10.4375,37.0,-0.72705078125,0.6865234375,0.435546875
1969/12/31/18:00:08.538,19,1731182878,398080763,RL_myo,0.6770994504395628,0.7094498253366122,0.0611605200883838,-0.1856789442204228,133.5625,-39.5625,61.8125,-0.458984375,0.8671875,-0.0029296875
1969/12/31/18:00:08.550,20,1731182878,411475389,RL_myo,0.6604973667013623,0.7256864608365674,0.0421775880593883,-0.1879985111764343,152.125,-59.5625,58.0625,-0.34326171875,0.67431640625,0.01025390625
1969/12/31/18:00:08.573,21,1731182878,434102873,RL_myo,0.6513153506589304,0.7352398757414934,0.017456301217173,-0.1868312518383456,105.375,-75.0625,97.9375,-0.06787109375,0.60107421875,0.2294921875
1969/12/31/18:00:08.588,22,1731182878,450614157,RL_myo,0.6485820047112825,0.7392223469845983,-0.0097659628038589,-0.1810975727440593,60.0625,-72.0,128.4375,0.15478515625,0.58203125,0.23291015625
1969/12/31/18:00:08.611,23,1731182878,474598176,RL_myo,0.6465717844000035,0.7417294745613936,-0.0384537169991505,-0.1740793664786944,48.75,-74.625,138.75,0.26318359375,0.60595703125,-0.01123046875
1969/12/31/18:00:08.631,24,1731182878,494070124,RL_myo,0.6414524009515118,0.7455838878697038,-0.0662266490657903,-0.1680997156932594,64.1875,-76.3125,125.75,0.37939453125,0.73974609375,-0.1416015625
1969/12/31/18:00:08.646,25,1731182878,510652672,RL_myo,0.6327688450692884,0.7518517057551359,-0.0913111017867903,-0.1611982752800222,88.875,-61.1875,110.25,0.583984375,0.69873046875,-0.0068359375
1969/12/31/18:00:08.674,26,1731182878,539095995,RL_myo,0.6280833481495802,0.7548597440783147,-0.1127376038904056,-0.1516189540139511,55.875,-37.6875,111.8125,0.49072265625,0.7021484375,-0.1259765625
1969/12/31/18:00:08.689,27,1731182878,554204346,RL_myo,0.6254905484743665,0.7554959025190973,-0.1318974507467902,-0.1434941724690901,31.875,-36.25,102.625,0.35400390625,0.76318359375,-0.33642578125
1969/12/31/18:00:08.704,28,1731182878,570650074,RL_myo,0.6215549024816209,0.7569382643302152,-0.1502767524216587,-0.134650900017132,36.3125,-34.625,81.0625,0.361328125,0.7939453125,-0.27099609375
1969/12/31/18:00:08.725,29,1731182878,591493538,RL_myo,0.6222769767399371,0.7548503552077295,-0.1638245616056881,-0.1270189689647679,-1.0,-20.375,67.25,0.31298828125,0.84912109375,-0.2763671875
1969/12/31/18:00:08.747,30,1731182878,614146077,RL_myo,0.6210428321451941,0.7543457850105606,-0.1738309568500749,-0.1226826626645543,-7.0,-18.875,52.625,0.11083984375,0.9287109375,-0.50244140625
1969/12/31/18:00:08.764,31,1731182878,632134401,RL_myo,0.6166627014559408,0.755950465953858,-0.1846997262798848,-0.1189622493455041,16.875,-25.5,53.75,0.06396484375,0.86767578125,-0.46875
1969/12/31/18:00:08.783,32,1731182878,651471626,RL_myo,0.6148099151177572,0.7554355524086649,-0.1959847748876321,-0.1136479759703428,8.5625,-20.0,60.5,0.1591796875,0.86328125,-0.35205078125
1969/12/31/18:00:08.806,33,1731182878,675661915,RL_myo,0.6139880162971719,0.7546821586140008,-0.203869169344125,-0.1091371481399088,-2.5,-9.8125,44.5625,0.1650390625,0.9580078125,-0.41796875
1969/12/31/18:00:08.822,34,1731182878,692048289,RL_myo,0.6122094428734198,0.7551600425952093,-0.2088714569803432,-0.1063279012448152,5.8125,-6.5625,28.9375,0.1162109375,1.029296875,-0.3857421875
1969/12/31/18:00:08.841,35,1731182878,711479595,RL_myo,0.6121539276638114,0.7545564716103337,-0.2124135674813105,-0.1038873252451697,-1.375,-1.5,26.4375,0.0791015625,1.005859375,-0.30712890625
1969/12/31/18:00:08.863,36,1731182878,734166457,RL_myo,0.6160586396974642,0.7511361953945302,-0.2142441122895174,-0.1018117319939928,-25.625,5.25,21.875,0.12109375,1.10009765625,-0.25390625
1969/12/31/18:00:08.880,37,1731182878,752082803,RL_myo,0.6180555721067336,0.7496502603806935,-0.2138718866938568,-0.101442658585956,-20.5625,6.4375,7.375,0.05712890625,1.0830078125,-0.3388671875
1969/12/31/18:00:08.899,38,1731182878,771435840,RL_myo,0.6146429162347513,0.7524034983540993,-0.2142399837124108,-0.1010162886165356,18.625,0.0625,3.625,0.025390625,1.0029296875,-0.32568359375
1969/12/31/18:00:08.921,39,1731182878,793970471,RL_myo,0.6133728362584858,0.7529061533733131,-0.2165024828548959,-0.1001636803960767,10.125,-4.6875,15.5,0.05615234375,0.9912109375,-0.22509765625
1969/12/31/18:00:08.953,40,1731182878,826892856,RL_myo,0.6145959231702206,0.7513220000300175,-0.2189448382571835,-0.0992484825776918,-10.125,-3.625,18.0625,0.09423828125,0.9384765625,-0.24609375
1969/12/31/18:00:08.957,41,1731182878,831492051,RL_myo,0.6153834868796445,0.7494836178729573,-0.2236426399451515,-0.0977826171375908,-11.375,-9.3125,29.25,0.08837890625,0.78271484375,-0.271484375
1969/12/31/18:00:08.979,42,1731182878,854109934,RL_myo,0.6136758209186246,0.7489970159630438,-0.2299300594191823,-0.0976607632255619,7.375,-22.5,32.625,0.07421875,1.10693359375,-0.2861328125
1969/12/31/18:00:08.996,43,1731182878,872088159,RL_myo,0.6115304638711047,0.7503287745650753,-0.230781184139799,-0.0988800630273669,18.125,-10.625,-1.3125,0.13623046875,1.21826171875,-0.21630859375
1969/12/31/18:00:09.015,44,1731182878,891578982,RL_myo,0.6083037095269579,0.7533297594804049,-0.2298687306922058,-0.0980879049979752,21.0,6.6875,1.8125,0.01318359375,1.041015625,-0.3173828125
1969/12/31/18:00:09.040,45,1731182878,917137133,RL_myo,0.6042588035627956,0.7563000843380404,-0.2311442514234653,-0.0972307347551043,27.3125,-1.4375,12.5,-0.0107421875,1.04541015625,-0.306640625
1969/12/31/18:00:09.054,46,1731182878,932678186,RL_myo,0.5985088358661542,0.7601904497973639,-0.2326652745586151,-0.0988156032293803,30.75,-13.9375,2.9375,-0.0166015625,1.0029296875,-0.37255859375
1969/12/31/18:00:09.075,47,1731182878,953135929,RL_myo,0.5947461697943077,0.7618659371277245,-0.2361528048988276,-0.1003451050022415,17.5625,-20.25,12.5625,0.0390625,1.03271484375,-0.3603515625
1969/12/31/18:00:09.095,48,1731182878,974002850,RL_myo,0.594377222002757,0.7609468912208227,-0.2394477143065121,-0.1016874565471958,1.625,-17.875,13.0625,0.099609375,0.9775390625,-0.23291015625
1969/12/31/18:00:09.113,49,1731182878,992204847,RL_myo,0.5943761867952475,0.7596027566920164,-0.2428043202989828,-0.1037625300423003,-6.875,-19.5,14.6875,0.03759765625,0.88671875,-0.2763671875
1969/12/31/18:00:09.131,50,1731182879,11498442,RL_myo,0.5952229305832619,0.7573955440532913,-0.2468295253567177,-0.1055312189272415,-12.0625,-20.8125,17.5625,0.09033203125,0.90673828125,-0.265625
1969/12/31/18:00:09.153,51,1731182879,34117305,RL_myo,0.5969311720778143,0.7549531357290885,-0.249697896213736,-0.1066297298179899,-12.625,-14.5,12.375,0.14404296875,0.8984375,-0.20263671875
1969/12/31/18:00:09.171,52,1731182879,52024872,RL_myo,0.5986603313669946,0.7527201474732643,-0.2520257451278875,-0.1072436992467179,-11.75,-9.3125,14.25,0.115234375,0.98583984375,-0.22705078125
1969/12/31/18:00:09.189,53,1731182879,71662765,RL_myo,0.6004182175905449,0.750690622969006,-0.2534244626853657,-0.1083401785323998,-15.9375,-6.875,10.9375,0.08544921875,1.0751953125,-0.294921875
1969/12/31/18:00:09.212,54,1731182879,95591443,RL_myo,0.6018783149788018,0.7490366779657089,-0.2544600644099609,-0.1092548609483881,-11.8125,-5.1875,10.0625,0.076171875,1.056640625,-0.26708984375
1969/12/31/18:00:09.229,55,1731182879,112155032,RL_myo,0.6044516065309469,0.7462410725484557,-0.2563563311552032,-0.1097449246231084,-20.125,-5.625,15.1875,0.10888671875,1.00537109375,-0.25537109375
1969/12/31/18:00:09.247,56,1731182879,131614882,RL_myo,0.6074427890885712,0.7428234267692837,-0.2586758983277095,-0.1109657345822972,-26.4375,-9.875,17.1875,0.091796875,1.03125,-0.2724609375
1969/12/31/18:00:09.269,57,1731182879,153974269,RL_myo,0.6102514964741693,0.7395896562089928,-0.2606905522545686,-0.1124308118129045,-25.75,-9.375,15.4375,0.08251953125,1.025390625,-0.27392578125
1969/12/31/18:00:09.287,58,1731182879,172011019,RL_myo,0.6123795759567527,0.7372603307068292,-0.2618467438308052,-0.1134669223266822,-21.25,-5.375,9.5625,0.0986328125,0.94287109375,-0.26806640625
1969/12/31/18:00:09.305,59,1731182879,191535597,RL_myo,0.6138525175887083,0.7353168220534124,-0.2631930054531679,-0.1149943465384435,-20.1875,-8.625,8.3125,0.0947265625,0.96337890625,-0.30224609375
1969/12/31/18:00:09.334,60,1731182879,221605508,RL_myo,0.6149932253197133,0.7335240752175779,-0.264344547326288,-0.1176763535546255,-24.625,-12.1875,3.9375,0.09326171875,1.06640625,-0.38818359375
1969/12/31/18:00:09.345,61,1731182879,231966123,RL_myo,0.6157425015497928,0.7324454816214824,-0.2636803733837336,-0.1218911355665083,-21.5,-12.6875,-10.75,0.09521484375,1.11328125,-0.353515625
1969/12/31/18:00:09.365,62,1731182879,253161951,RL_myo,0.6152993469685658,0.7329148455905702,-0.2615983534478001,-0.1257332263421531,-15.6875,-7.3125,-23.5625,0.162109375,1.10546875,-0.41650390625
1969/12/31/18:00:09.385,63,1731182879,273919200,RL_myo,0.614705875807945,0.733972610127151,-0.2580653800929393,-0.129704099502719,-10.25,-3.25,-29.8125,0.14208984375,1.1953125,-0.37548828125
1969/12/31/18:00:09.403,64,1731182879,291999342,RL_myo,0.6136864937943337,0.7357035318980608,-0.2529457758388421,-0.1347131581265262,-4.3125,-2.25,-39.8125,0.0966796875,1.20556640625,-0.3125
1969/12/31/18:00:09.423,65,1731182879,313103928,RL_myo,0.6123837555150199,0.7374484734508592,-0.2470165512378436,-0.1419109171307107,-5.375,-8.25,-47.0625,0.01806640625,1.22216796875,-0.29296875
1969/12/31/18:00:09.443,66,1731182879,334045342,RL_myo,0.6108333755855364,0.7391889500116338,-0.240475969205337,-0.1505111015381627,-6.6875,-13.0625,-57.5,0.03076171875,1.20361328125,-0.283203125
1969/12/31/18:00:09.481,67,1731182879,373451526,RL_myo,0.6090222760029387,0.7410442426289515,-0.2332204967535807,-0.1598546142364899,-6.5625,-14.75,-65.1875,0.021484375,1.154296875,-0.26953125
1969/12/31/18:00:09.484,68,1731182879,376152363,RL_myo,0.6055707135616226,0.7438857258517786,-0.2265167743198449,-0.1691398495392859,2.0625,-17.5,-65.9375,-0.00244140625,1.06787109375,-0.283203125
1969/12/31/18:00:09.501,69,1731182879,394195129,RL_myo,0.6001825607431617,0.7479545509352896,-0.2196132262334888,-0.179206345809206,11.5,-21.1875,-70.4375,-0.06884765625,1.05517578125,-0.314453125
1969/12/31/18:00:09.519,70,1731182879,412020553,RL_myo,0.5936505207995186,0.7522869287326822,-0.2135091015583709,-0.1898875971835597,19.5625,-28.0625,-73.75,-0.05419921875,0.99560546875,-0.28076171875
1969/12/31/18:00:09.539,71,1731182879,433159705,RL_myo,0.5879724263065534,0.7555808850045496,-0.2086255323487802,-0.1996530474876711,18.1875,-29.5,-67.375,-0.01416015625,0.94677734375,-0.22802734375
1969/12/31/18:00:09.560,72,1731182879,453998697,RL_myo,0.5822801476179801,0.7586121545853118,-0.2044694438700454,-0.2089250466767658,19.875,-29.625,-59.1875,-0.06689453125,0.82373046875,-0.18798828125
1969/12/31/18:00:09.577,73,1731182879,472010828,RL_myo,0.5749712068098892,0.7625387777787628,-0.2015451087989654,-0.2175368769713848,32.375,-30.75,-53.0625,-0.1103515625,0.77490234375,-0.1787109375
1969/12/31/18:00:09.612,74,1731182879,508393223,RL_myo,0.5664095796530835,0.7672164241637134,-0.1995861342096533,-0.2252210505301592,42.25,-30.75,-48.5625,-0.119140625,0.78662109375,-0.19970703125
1969/12/31/18:00:09.619,75,1731182879,515589947,RL_myo,0.5573273073383247,0.771871769641929,-0.1996514754466827,-0.2318178855843782,49.0,-32.8125,-35.3125,-0.14501953125,0.72998046875,-0.18212890625
1969/12/31/18:00:09.635,76,1731182879,532164385,RL_myo,0.5484314869395707,0.7758001334448462,-0.2026480285630912,-0.2372568936821492,50.5625,-36.6875,-14.25,-0.20703125,0.7294921875,-0.20849609375
1969/12/31/18:00:09.657,77,1731182879,554965709,RL_myo,0.5397042633782599,0.7790370406578524,-0.2083861519083215,-0.2416522482147173,53.6875,-41.0625,1.6875,-0.205078125,0.751953125,-0.20849609375
1969/12/31/18:00:09.676,78,1731182879,574224639,RL_myo,0.5311990581696366,0.7823634985198671,-0.2153971591727735,-0.2435959371659221,60.5625,-36.6875,5.125,-0.048828125,0.7060546875,-0.16357421875
1969/12/31/18:00:09.693,79,1731182879,591989594,RL_myo,0.5224018766645542,0.7863799251017778,-0.2227181268780182,-0.2431039461099333,70.0625,-26.1875,10.75,-0.02099609375,0.7255859375,-0.14599609375
1969/12/31/18:00:09.713,80,1731182879,613735634,RL_myo,0.511250637454598,0.7919013574899658,-0.230416804726732,-0.241708754097446,81.5,-22.5625,17.75,-0.13037109375,0.68310546875,-0.2294921875
1969/12/31/18:00:09.734,81,1731182879,634461992,RL_myo,0.5004405302417537,0.7966520064294877,-0.2390200166394326,-0.2403628257216765,79.4375,-25.75,23.1875,-0.13916015625,0.7490234375,-0.27685546875
1969/12/31/18:00:09.750,82,1731182879,651330941,RL_myo,0.4932441370478506,0.7992251863017641,-0.2472019248909534,-0.2384125231170528,61.1875,-22.5,23.4375,-0.03955078125,0.8896484375,-0.2802734375
1969/12/31/18:00:09.771,83,1731182879,673744649,RL_myo,0.4896971873643613,0.79976346080459,-0.2536073555401871,-0.2371884918481749,36.3125,-17.25,23.75,-0.07421875,0.8916015625,-0.27392578125
1969/12/31/18:00:09.793,84,1731182879,694779191,RL_myo,0.4885361338425689,0.7986625826249394,-0.2595882280400357,-0.2368216141065926,16.75,-17.5,27.9375,-0.1123046875,0.85888671875,-0.29638671875
1969/12/31/18:00:09.808,85,1731182879,711142256,RL_myo,0.4882833982406626,0.7972447184774418,-0.2651989206694599,-0.2359019167750201,11.1875,-15.0,26.0625,-0.046875,0.8486328125,-0.306640625
1969/12/31/18:00:09.829,86,1731182879,733691328,RL_myo,0.4876200195846026,0.7964033064889092,-0.2705134468392738,-0.2340746996003193,17.0625,-8.125,28.8125,-0.08984375,0.83740234375,-0.28466796875
1969/12/31/18:00:09.850,87,1731182879,754780996,RL_myo,0.4856027022391366,0.7963371614019626,-0.2757608105475639,-0.2323641889673696,23.75,-7.6875,30.5625,-0.166015625,0.880859375,-0.33203125
1969/12/31/18:00:09.872,88,1731182879,776936827,RL_myo,0.4843756802743661,0.7957774848055931,-0.2808231483042286,-0.2307742498887826,18.375,-9.375,25.5,-0.08203125,0.93310546875,-0.357421875
1969/12/31/18:00:09.888,89,1731182879,793717055,RL_myo,0.4858516700321768,0.7939646386656478,-0.2849190446872112,-0.2288874073644049,3.1875,-4.6875,23.5625,-0.0078125,0.9501953125,-0.341796875
1969/12/31/18:00:09.902,90,1731182879,808102459,RL_myo,0.489753931759771,0.7907841400647548,-0.288334692626266,-0.2272985595555068,-11.3125,-0.8125,27.0625,-0.03564453125,0.96875,-0.31982421875
1969/12/31/18:00:09.924,91,1731182879,831292913,RL_myo,0.4936152980284815,0.787758011172942,-0.2907856163976364,-0.2263293588586137,-16.1875,1.1875,25.5625,-0.0947265625,0.93408203125,-0.341796875
1969/12/31/18:00:09.946,92,1731182879,853769427,RL_myo,0.4967044077985169,0.7851567340771837,-0.2934572121768578,-0.2251588302247147,-12.125,0.6875,25.75,-0.09619140625,0.90869140625,-0.34326171875
1969/12/31/18:00:09.967,93,1731182879,874871728,RL_myo,0.5004307844526574,0.7821710577827546,-0.2962057076410229,-0.2236954293229649,-13.25,0.875,25.0625,-0.0361328125,0.9716796875,-0.3291015625
1969/12/31/18:00:09.982,94,1731182879,891180533,RL_myo,0.504045000321505,0.7795057761087358,-0.2977393450676073,-0.2228467299798758,-11.8125,3.625,21.4375,-0.10009765625,1.04296875,-0.3115234375
1969/12/31/18:00:10.009,95,1731182879,919426949,RL_myo,0.5062911609123946,0.7777779702841041,-0.2985866617460439,-0.2226582465350711,-11.3125,3.375,17.125,-0.15576171875,0.966796875,-0.373046875
1969/12/31/18:00:10.024,96,1731182879,934796148,RL_myo,0.5084761943436936,0.7758061344739754,-0.3012649736262719,-0.2209439231213744,-8.0,0.6875,22.0,-0.02001953125,0.93212890625,-0.373046875
1969/12/31/18:00:10.040,97,1731182879,951383641,RL_myo,0.5104475065646676,0.7741858392043818,-0.3043885824749489,-0.2177779150332098,-0.125,3.5625,21.5625,0.0732421875,0.986328125,-0.35205078125
1969/12/31/18:00:10.062,98,1731182879,973693589,RL_myo,0.511443359297248,0.7736046229542095,-0.305620825874367,-0.2157718433125399,2.5625,6.625,14.375,-0.03173828125,1.0126953125,-0.36279296875
1969/12/31/18:00:10.082,99,1731182879,994753091,RL_myo,0.5115520812853639,0.7733402779961294,-0.3071387749705227,-0.2143013193405217,5.875,3.0,14.375,-0.06396484375,0.9599609375,-0.361328125
1969/12/31/18:00:10.098,100,1731182880,11344430,RL_myo,0.5108698835212384,0.7732018738885363,-0.310428223128915,-0.2116722528138178,2.0625,-1.6875,16.0,0.076171875,0.9638671875,-0.5458984375
1969/12/31/18:00:10.121,101,1731182880,33841556,RL_myo,0.5163233754136584,0.7699377062853631,-0.3075722294253959,-0.2144887505856006,-16.0,-4.5625,-24.1875,0.2197265625,1.4990234375,-0.20849609375
1969/12/31/18:00:10.140,102,1731182880,54487069,RL_myo,0.5135713057039315,0.7732257310027816,-0.3034795022533809,-0.2150968958046891,11.0,12.1875,-20.0,-0.1669921875,1.021484375,-0.49169921875
1969/12/31/18:00:10.157,103,1731182880,71297672,RL_myo,0.5111944430516874,0.7743298751705918,-0.3065945895461046,-0.2123516975972323,23.875,2.25,21.875,-0.08984375,0.87353515625,-0.341796875
1969/12/31/18:00:10.178,104,1731182880,93812600,RL_myo,0.5080298751861653,0.7767247581093298,-0.3075158610102007,-0.209853023055393,32.5,3.6875,-1.375,0.0615234375,0.89404296875,-0.29345703125
1969/12/31/18:00:10.198,105,1731182880,114657489,RL_myo,0.503179060785665,0.7807088023422418,-0.3061555275231557,-0.2087424051294243,39.25,4.5625,-17.0,0.00341796875,0.93017578125,-0.32666015625
1969/12/31/18:00:10.215,106,1731182880,131276786,RL_myo,0.4986744394442551,0.7838405326001376,-0.3061018743957086,-0.2078929180841044,31.125,1.125,-5.8125,-0.068359375,0.9423828125,-0.421875
1969/12/31/18:00:10.236,107,1731182880,153814194,RL_myo,0.4948323309471998,0.7858599063704451,-0.3075687819961687,-0.2072839022939053,24.375,-4.9375,2.1875,-0.0537109375,0.91162109375,-0.44921875
1969/12/31/18:00:10.256,108,1731182880,174618552,RL_myo,0.4936567693588905,0.7860788245021205,-0.3092679092904918,-0.2067279275245502,7.3125,-6.0625,3.375,0.04150390625,0.91943359375,-0.45947265625
1969/12/31/18:00:10.295,109,1731182880,214166700,RL_myo,0.4934170105632645,0.7860247726414795,-0.308721330953611,-0.2083167067110863,-4.5625,-6.1875,-7.0,-0.0224609375,0.9443359375,-0.4775390625
1969/12/31/18:00:10.297,110,1731182880,216749015,RL_myo,0.4924428522540326,0.7859676014470969,-0.3087228491200913,-0.2108202295098449,-2.6875,-12.1875,-6.1875,-0.0576171875,0.8955078125,-0.4599609375
1969/12/31/18:00:10.314,111,1731182880,234593298,RL_myo,0.4907962496473245,0.7860308547392421,-0.3098834174181652,-0.212712962320722,2.8125,-15.125,-3.1875,-0.0205078125,0.92529296875,-0.4814453125
1969/12/31/18:00:10.331,112,1731182880,251210666,RL_myo,0.4898145098783842,0.7860836227693098,-0.3106736268262898,-0.2136262659905725,3.8125,-10.25,-4.75,0.03857421875,0.9248046875,-0.4423828125
1969/12/31/18:00:10.352,113,1731182880,273684261,RL_myo,0.4900494676905297,0.7856416425597831,-0.3113391872822758,-0.213744331280637,-0.25,-4.125,0.4375,0.021484375,0.92041015625,-0.41259765625
1969/12/31/18:00:10.372,114,1731182880,294689680,RL_myo,0.489817353785745,0.7856609318292972,-0.3116520135115282,-0.2137495791847575,1.3125,-0.9375,1.5625,-0.03955078125,0.8642578125,-0.41259765625
1969/12/31/18:00:10.395,115,1731182880,316950814,RL_myo,0.4879286136536859,0.7866429788302106,-0.3123866205503583,-0.2133848427987598,12.3125,-1.9375,1.5,-0.0517578125,0.85595703125,-0.41943359375
1969/12/31/18:00:10.416,116,1731182880,339680866,RL_myo,0.4870081421668082,0.7873674688497088,-0.3128717554514424,-0.2121009266862587,11.375,2.1875,0.3125,0.021484375,0.9609375,-0.4248046875
1969/12/31/18:00:10.430,117,1731182880,354683770,RL_myo,0.484944041703667,0.7895218602186196,-0.3120854481096097,-0.2099694780944763,18.6875,9.3125,-6.75,0.00830078125,0.9716796875,-0.4736328125
1969/12/31/18:00:10.447,118,1731182880,371207216,RL_myo,0.4832288172750916,0.7914039212819044,-0.3114100575644205,-0.2078305068613978,11.6875,10.9375,-2.3125,-0.0302734375,0.91064453125,-0.51953125
1969/12/31/18:00:10.468,119,1731182880,393706930,RL_myo,0.4831572838201781,0.7918750126683919,-0.3110981146578382,-0.2066663167022641,-5.125,6.125,0.9375,-0.03125,0.8671875,-0.5693359375
1969/12/31/18:00:10.490,120,1731182880,416276754,RL_myo,0.4863242316745575,0.7900327378006367,-0.3104833542329913,-0.2072126966033035,-23.8125,2.5,2.75,-0.0244140625,0.974609375,-0.5224609375
1969/12/31/18:00:10.504,121,1731182880,430556641,RL_myo,0.4918221336983082,0.7871107267527157,-0.307922892095801,-0.2091678396852944,-45.5625,4.625,-5.3125,-0.0302734375,0.95849609375,-0.54638671875
1969/12/31/18:00:10.526,122,1731182880,453618780,RL_myo,0.4986731166707819,0.7830449710856133,-0.3046972091090016,-0.2128974089287255,-63.25,-0.8125,-9.25,-0.0322265625,0.85546875,-0.552734375
1969/12/31/18:00:10.554,123,1731182880,482139407,RL_myo,0.5082449310863143,0.7765582152289152,-0.3012726047606638,-0.2188132674365842,-87.9375,-10.1875,-13.6875,0.03564453125,0.8662109375,-0.54638671875
1969/12/31/18:00:10.562,124,1731182880,490754339,RL_myo,0.523894538043298,0.7662178883907165,-0.2931074882539807,-0.2292000454797371,-130.9375,-9.8125,-32.4375,0.150390625,0.908203125,-0.515625
1969/12/31/18:00:10.584,125,1731182880,513752378,RL_myo,0.5448752314463625,0.7526443910569167,-0.278876994788667,-0.2426211543630884,-176.625,-1.25,-58.5625,0.322265625,0.91455078125,-0.41845703125
1969/12/31/18:00:10.606,126,1731182880,536260702,RL_myo,0.5700335516085608,0.73709446078006,-0.256786717166422,-0.2565425653079324,-212.75,25.0625,-88.3125,0.48974609375,0.7353515625,-0.31640625
1969/12/31/18:00:10.620,127,1731182880,550748617,RL_myo,0.597853230941487,0.7202925960531381,-0.2269950143819694,-0.2687440302026919,-236.875,59.6875,-111.6875,0.61865234375,0.57568359375,-0.22509765625
1969/12/31/18:00:10.642,128,1731182880,573743192,RL_myo,0.6241607890833941,0.7043629479779355,-0.1922654494047224,-0.2780829801548937,-230.875,88.4375,-127.0,0.69091796875,0.4248046875,-0.12548828125
1969/12/31/18:00:10.670,129,1731182880,601982836,RL_myo,0.6446813226682392,0.6924739259298592,-0.1561347115494561,-0.2837037291954152,-189.1875,109.9375,-132.6875,0.66748046875,0.337890625,0.03173828125
1969/12/31/18:00:10.686,130,1731182880,618764703,RL_myo,0.658455896348711,0.685494824980754,-0.1200577260027729,-0.2865638147346309,-139.3125,123.5,-135.3125,0.5234375,0.29736328125,0.1591796875
1969/12/31/18:00:10.700,131,1731182880,633766802,RL_myo,0.6665791603661387,0.6820824207574032,-0.0856341509013545,-0.2882751922359924,-99.3125,124.5625,-132.5,0.283203125,0.3583984375,0.23583984375
1969/12/31/18:00:10.723,132,1731182880,656193282,RL_myo,0.6705506095646954,0.6806216864423738,-0.0540175941620931,-0.2901690877362609,-70.0,114.25,-126.8125,0.0185546875,0.49853515625,0.29248046875
1969/12/31/18:00:10.736,133,1731182880,670575670,RL_myo,0.6734750683019581,0.6785410852195821,-0.0260625207689809,-0.2921199634668454,-62.3125,98.75,-112.0,-0.1953125,0.65478515625,0.30615234375
1969/12/31/18:00:10.758,134,1731182880,693752666,RL_myo,0.6777006392352625,0.6742214951808259,-0.0048219715842191,-0.2934688528724797,-50.8125,77.8125,-82.0,-0.29296875,0.75146484375,0.35400390625
1969/12/31/18:00:10.782,135,1731182880,716826028,RL_myo,0.6888637192217907,0.6642047663097222,0.0100100699940079,-0.2901699558019132,-103.375,55.5,-25.8125,-0.3857421875,0.9140625,0.365234375
1969/12/31/18:00:10.794,136,1731182880,730575774,RL_myo,0.7085212784853983,0.6468735793752801,0.0202643921827319,-0.2813210348500345,-158.4375,44.875,30.375,-0.61181640625,0.97216796875,0.3330078125
1969/12/31/18:00:10.822,137,1731182880,759446755,RL_myo,0.7298362942028872,0.6291839525502518,0.0219127899656131,-0.2664326690805054,-151.6875,30.5625,95.875,-0.9677734375,0.9423828125,0.43115234375
1969/12/31/18:00:10.839,138,1731182880,776173559,RL_myo,0.7537006874964561,0.6070867377583213,0.0130621920249628,-0.2514166773402901,-162.5,-20.6875,138.125,-0.93994140625,0.931640625,0.5400390625
1969/12/31/18:00:10.859,139,1731182880,797309159,RL_myo,0.7794086450730092,0.5780405567265563,-0.0073246955445814,-0.2415318355825748,-184.875,-99.5,156.1875,-0.78173828125,0.9599609375,0.466796875
1969/12/31/18:00:10.874,140,1731182880,813644440,RL_myo,0.8077172982341003,0.5418352948253691,-0.0320450072978842,-0.2301747095625173,-229.6875,-128.4375,184.3125,-0.90234375,1.0361328125,-0.07373046875
1969/12/31/18:00:10.897,141,1731182880,836184179,RL_myo,0.8305528738634644,0.509123357161399,-0.0634191545486984,-0.2166871979286616,-180.875,-147.5625,204.875,-0.701171875,0.91015625,0.34765625
1969/12/31/18:00:10.917,142,1731182880,857352285,RL_myo,0.8534800529366957,0.4712665013748285,-0.0963163501061364,-0.2005064702779836,-202.625,-154.3125,225.625,-0.720703125,0.91796875,0.45556640625
1969/12/31/18:00:10.946,143,1731182880,887001771,RL_myo,0.8706659265664087,0.4332882869046572,-0.1284789187116922,-0.1941527032883102,-194.875,-180.1875,167.25,-0.525390625,0.8935546875,0.45849609375
1969/12/31/18:00:10.956,144,1731182880,897679691,RL_myo,0.8753881044370349,0.4134624891546837,-0.1593057420569419,-0.1933031743656456,-79.1875,-175.25,107.6875,-0.36767578125,1.0087890625,0.52880859375
1969/12/31/18:00:10.975,145,1731182880,917296773,RL_myo,0.875947084273647,0.4009543862165415,-0.1899482493386934,-0.1893989131420198,-30.375,-163.0625,111.4375,-0.28857421875,1.10546875,0.6005859375
1969/12/31/18:00:10.991,146,1731182880,933786472,RL_myo,0.8790515940725188,0.3831888562413049,-0.2152766957571013,-0.1846362360831391,-71.25,-139.4375,116.3125,-0.46533203125,1.369140625,0.55419921875
1969/12/31/18:00:11.013,147,1731182880,956249221,RL_myo,0.8821780150496291,0.364395125568829,-0.2382301800829379,-0.1795119035674918,-79.3125,-124.875,111.8125,-0.220703125,1.24658203125,0.39453125
1969/12/31/18:00:11.033,148,1731182880,977318904,RL_myo,0.885686469406,0.3428975663374618,-0.2586685450584128,-0.1762705894593431,-96.5,-118.1875,99.5,-0.076171875,1.16357421875,0.58154296875
1969/12/31/18:00:11.049,149,1731182880,993668365,RL_myo,0.8870932391991198,0.3230010610872259,-0.2807033030877082,-0.1730362827252996,-79.125,-125.9375,94.875,0.12548828125,0.83154296875,0.58544921875
1969/12/31/18:00:11.077,150,1731182881,22115405,RL_myo,0.8886413378596638,0.3031109886538286,-0.2999980888508996,-0.1686459246175047,-78.25,-109.4375,94.25,0.201171875,0.6533203125,0.6162109375
1969/12/31/18:00:11.093,151,1731182881,39275106,RL_myo,0.8882278663699262,0.2874899155169291,-0.3169713654521047,-0.1671225878312849,-57.0,-102.0625,63.875,0.24169921875,0.34619140625,0.609375
1969/12/31/18:00:11.107,152,1731182881,53725222,RL_myo,0.880595766612098,0.2936946790225545,-0.3313525379080316,-0.1688195100117177,69.3125,-94.8125,-3.6875,0.17822265625,0.2216796875,0.54833984375
1969/12/31/18:00:11.129,153,1731182881,76045985,RL_myo,0.8657095107290568,0.3136159815360568,-0.354023490250901,-0.1638884605730464,158.875,-114.6875,8.375,0.603515625,0.5166015625,0.59228515625
1969/12/31/18:00:11.149,154,1731182881,97352093,RL_myo,0.8534975797111395,0.327958413486945,-0.3754461569622555,-0.1517410414905165,138.125,-91.5,52.75,1.10498046875,0.76416015625,0.58740234375
1969/12/31/18:00:11.166,155,1731182881,114450295,RL_myo,0.8491746806613459,0.33105178379265,-0.386471219575048,-0.1412341127758466,50.875,-35.0,58.625,0.76220703125,0.833984375,0.50537109375
1969/12/31/18:00:11.193,156,1731182881,142000877,RL_myo,0.8488770274393671,0.3277588177559247,-0.3919678077520575,-0.1354370235754929,5.875,-31.5625,57.625,0.419921875,0.78466796875,0.65576171875
1969/12/31/18:00:11.214,157,1731182881,164527964,RL_myo,0.8490349073133583,0.3211195289270724,-0.3994309441738761,-0.1283623587404739,6.875,-20.5,31.875,1.25439453125,0.6181640625,0.83251953125
1969/12/31/18:00:11.225,158,1731182881,175199204,RL_myo,0.8495845745370628,0.3243546540045945,-0.3966843990169101,-0.1250663692238265,29.8125,33.75,-22.9375,1.142578125,0.61669921875,0.66357421875
1969/12/31/18:00:11.251,159,1731182881,202339535,RL_myo,0.8496842379711464,0.3336235934739089,-0.3888613088222236,-0.1245747812440995,38.3125,48.3125,-33.8125,0.580078125,0.64599609375,0.41650390625
1969/12/31/18:00:11.265,160,1731182881,217305008,RL_myo,0.8499211380920569,0.3408839896764192,-0.3827544313806311,-0.1221933298714756,33.75,41.25,-15.875,0.43994140625,0.53271484375,0.330078125
1969/12/31/18:00:11.282,161,1731182881,233775713,RL_myo,0.8516534919056999,0.3415037115467921,-0.3794689141530665,-0.118595480167188,4.1875,28.75,10.25,0.40576171875,0.462890625,0.31201171875
1969/12/31/18:00:11.309,162,1731182881,262305825,RL_myo,0.8542803795105236,0.3363164397758634,-0.3792868161102024,-0.115055624133848,-22.375,9.0625,30.875,0.39892578125,0.48583984375,0.36328125
1969/12/31/18:00:11.323,163,1731182881,277644099,RL_myo,0.8557821318275055,0.3295319684570788,-0.3827551350610004,-0.1120005856860047,-23.4375,-13.1875,33.75,0.50390625,0.4765625,0.44287109375
1969/12/31/18:00:11.345,164,1731182881,299604455,RL_myo,0.8554791744404616,0.3257485983154069,-0.3869676060183024,-0.1109022303052453,-5.875,-21.875,13.3125,0.6416015625,0.505859375,0.537109375
1969/12/31/18:00:11.361,165,1731182881,316751337,RL_myo,0.8541447422428179,0.3268504426690217,-0.3884362683745386,-0.1127954468818584,9.875,-14.25,-14.1875,0.6728515625,0.625,0.5830078125
1969/12/31/18:00:11.382,166,1731182881,337330626,RL_myo,0.8535423252992648,0.3281963017115379,-0.3873412182743946,-0.1171301288793828,-1.375,-5.4375,-25.75,0.58251953125,0.67919921875,0.53466796875
1969/12/31/18:00:11.397,167,1731182881,352996913,RL_myo,0.8543866856136019,0.3263613093281847,-0.3853834499903045,-0.1224388977954625,-24.0,-2.1875,-21.0625,0.490234375,0.6435546875,0.47705078125
1969/12/31/18:00:11.419,168,1731182881,376219547,RL_myo,0.8559636462608189,0.3222070799066502,-0.3840972066399981,-0.1264047854682085,-32.125,-3.0625,-9.75,0.47998046875,0.59033203125,0.470703125
1969/12/31/18:00:11.440,169,1731182881,397305016,RL_myo,0.8574890657788542,0.3170188773332884,-0.3839749243942467,-0.1295175313248436,-32.1875,-7.5625,-3.8125,0.5126953125,0.54833984375,0.49658203125
1969/12/31/18:00:11.461,170,1731182881,419569889,RL_myo,0.858497013368734,0.3128188548535202,-0.3843551861488032,-0.1319027405538453,-25.8125,-7.375,-2.6875,0.5498046875,0.56689453125,0.4912109375
1969/12/31/18:00:11.483,171,1731182881,442079845,RL_myo,0.8588563928419158,0.3108631659970064,-0.384718345823509,-0.1331224357038034,-10.875,-3.8125,-3.875,0.587890625,0.57421875,0.49853515625
1969/12/31/18:00:11.499,172,1731182881,458705063,RL_myo,0.8582957788281067,0.3118356659104535,-0.3851405464660328,-0.1332427595777099,7.5625,-0.5625,-7.1875,0.62646484375,0.576171875,0.49853515625
1969/12/31/18:00:11.513,173,1731182881,473037705,RL_myo,0.8570769654960649,0.3150713072134088,-0.385263481427942,-0.1331209843146928,17.4375,1.9375,-9.5,0.59619140625,0.60595703125,0.45556640625
1969/12/31/18:00:11.513,1,1731182887,539584634,RL_myo,0.8495469061865517,0.3838494498891604,-0.359740603855416,-0.0389403639734909,2.9375,3.3125,-2.0625,0.5302734375,0.63720703125,0.4453125
1969/12/31/18:00:11.536,2,1731182887,563601628,RL_myo,0.8496627537084268,0.3844846038512486,-0.3587871886708428,-0.0389428762116362,3.9375,3.25,-2.5,0.51220703125,0.6279296875,0.4384765625
1969/12/31/18:00:11.546,3,1731182887,573461663,RL_myo,0.8496804299923038,0.3852584494010072,-0.3579143769466898,-0.0389408888969966,3.8125,3.4375,-2.1875,0.51708984375,0.64453125,0.4296875
1969/12/31/18:00:11.572,4,1731182887,599847947,RL_myo,0.849804918870187,0.3858699057026016,-0.3569388181823496,-0.039124107806923,2.3125,4.0,-3.3125,0.54248046875,0.66552734375,0.43994140625
1969/12/31/18:00:11.586,5,1731182887,614775974,RL_myo,0.8501332825037798,0.3865518436312778,-0.3553615717071371,-0.0396134764750827,2.3125,6.25,-7.125,0.544921875,0.65380859375,0.4521484375
1969/12/31/18:00:11.608,6,1731182887,637085333,RL_myo,0.8504126925947193,0.3878829154840624,-0.3531535088891872,-0.0403447060794595,7.0,7.4375,-11.75,0.541015625,0.642578125,0.48291015625
1969/12/31/18:00:11.630,7,1731182887,659708412,RL_myo,0.8505450053012314,0.3903290497955777,-0.3499838579402412,-0.041565923832805,13.6875,12.9375,-23.1875,0.67919921875,0.69921875,0.56103515625
1969/12/31/18:00:11.651,8,1731182887,682068928,RL_myo,0.8499513900792447,0.3969288251120523,-0.3435207485361572,-0.0449848599273539,30.8125,28.1875,-57.75,0.908203125,0.82861328125,0.64501953125
1969/12/31/18:00:11.676,9,1731182887,707674925,RL_myo,0.848786534784862,0.4083404226744374,-0.332043632189677,-0.0506610688818808,48.5,44.875,-84.5625,0.76708984375,0.857421875,0.6162109375
1969/12/31/18:00:11.678,10,1731182887,709356135,RL_myo,0.8486326765596787,0.4197997374408421,-0.3167113750480561,-0.0573120025380853,33.3125,63.5,-85.625,0.61181640625,1.0615234375,0.5224609375
1969/12/31/18:00:11.695,11,1731182887,726743298,RL_myo,0.8513895027132803,0.427190130438759,-0.2973668117584845,-0.0649421772805885,0.25,82.0,-85.6875,0.46044921875,1.1083984375,0.50048828125
1969/12/31/18:00:11.710,12,1731182887,741764740,RL_myo,0.857693256363196,0.4292128507504977,-0.2739955186318237,-0.0711692525561832,-27.75,109.9375,-84.8125,0.3544921875,1.2109375,0.52099609375
1969/12/31/18:00:11.724,13,1731182887,756745379,RL_myo,0.8659694002507495,0.4280408376063226,-0.2465827725551894,-0.0779421288497467,-52.5625,129.75,-90.875,0.23974609375,1.2216796875,0.4580078125
1969/12/31/18:00:11.753,14,1731182887,786791297,RL_myo,0.875037775027045,0.4237243466962713,-0.2181490658444935,-0.0847204542227635,-71.1875,133.5,-87.0625,-0.0146484375,1.1142578125,0.400390625
1969/12/31/18:00:11.775,15,1731182887,809834126,RL_myo,0.8830104016291476,0.418769224136143,-0.1896394081607632,-0.0946671136328753,-75.0625,125.125,-105.4375,0.02978515625,0.90283203125,0.31201171875
1969/12/31/18:00:11.798,16,1731182887,832996947,RL_myo,0.8861471812609611,0.4227479940359152,-0.158454200478954,-0.1044967608705583,-17.1875,138.625,-124.75,0.0009765625,0.71875,0.388671875
1969/12/31/18:00:11.803,17,1731182887,839150654,RL_myo,0.8828689931372431,0.4387184460885242,-0.1262200537717123,-0.110167890260126,64.0,153.875,-119.5625,-0.18408203125,0.6552734375,0.43505859375
1969/12/31/18:00:11.825,18,1731182887,861685297,RL_myo,0.8744124296418873,0.4624143911047702,-0.092531707618114,-0.1140776791149439,115.75,165.0,-120.375,-0.41455078125,0.7509765625,0.4013671875
1969/12/31/18:00:11.839,19,1731182887,876696754,RL_myo,0.8617931089136682,0.4902558432463051,-0.059145656387658,-0.1160329130990072,148.625,168.5,-113.0625,-0.5908203125,0.9755859375,0.47412109375
1969/12/31/18:00:11.861,20,1731182887,899172453,RL_myo,0.847814105214692,0.5157688401054102,-0.028687734301721,-0.1198781067416598,142.9375,147.3125,-114.8125,-0.595703125,0.9765625,0.44287109375
1969/12/31/18:00:11.884,21,1731182887,921845940,RL_myo,0.8335806381374992,0.5375517815096255,0.0011597006754494,-0.1272008530335028,126.1875,132.625,-130.3125,-0.59912109375,0.92041015625,0.41064453125
1969/12/31/18:00:11.897,22,1731182887,936737870,RL_myo,0.81712150976035,0.5592951664998945,0.0303971399014457,-0.1362988220882096,134.75,125.0,-138.875,-0.59326171875,0.798828125,0.4208984375
1969/12/31/18:00:11.944,23,1731182887,983788676,RL_myo,0.7982535199123851,0.5816300497969963,0.0584132603269729,-0.1452091393081177,146.875,121.6875,-136.875,-0.5791015625,0.75341796875,0.380859375
1969/12/31/18:00:11.946,24,1731182887,986294265,RL_myo,0.7791318246933528,0.6024309525831095,0.0874654057803035,-0.149600634729605,138.6875,140.875,-119.5625,-0.65478515625,0.65673828125,0.34423828125
1969/12/31/18:00:11.956,25,1731182887,996769050,RL_myo,0.760230099668171,0.6224059675886262,0.1088920512089937,-0.1510083714635933,140.4375,116.75,-77.8125,-0.7978515625,0.6533203125,0.37255859375
1969/12/31/18:00:11.978,26,1731182888,19210760,RL_myo,0.7437366332082105,0.6398515491113393,0.1202430174329236,-0.1516160686819199,129.75,72.6875,-38.3125,-0.791015625,0.6328125,0.3720703125
1969/12/31/18:00:11.999,27,1731182888,41750371,RL_myo,0.7339393336357527,0.6492775026516552,0.125436238408306,-0.1550404114633077,88.375,26.875,-12.1875,-0.68896484375,0.7666015625,0.32421875
1969/12/31/18:00:12.013,28,1731182888,56608477,RL_myo,0.7206201074449753,0.6640374512022603,0.1231756206017245,-0.15680781433391,115.6875,6.4375,4.125,-0.54931640625,0.6953125,0.119140625
1969/12/31/18:00:12.043,29,1731182888,86861341,RL_myo,0.7093959983301227,0.6766790601865204,0.117195002305441,-0.1585184484308491,104.0,-11.1875,17.0,-0.4326171875,0.61328125,0.19091796875
1969/12/31/18:00:12.066,30,1731182888,110506993,RL_myo,0.7044525966247575,0.6830889012067984,0.1061470466623735,-0.1608381069323486,71.125,-39.375,42.25,-0.3720703125,0.6005859375,0.25341796875
1969/12/31/18:00:12.071,31,1731182888,116661779,RL_myo,0.6998783946669183,0.690234160726802,0.0882020129333417,-0.1611441620373856,70.8125,-61.625,76.75,-0.326171875,0.5693359375,0.1337890625
1969/12/31/18:00:12.094,32,1731182888,139030299,RL_myo,0.6930090027258448,0.700272352322848,0.0638442325921467,-0.1590002159680135,89.125,-76.375,103.375,-0.1669921875,0.55517578125,0.03515625
1969/12/31/18:00:12.115,33,1731182888,161632118,RL_myo,0.6838713607932068,0.7114606016963243,0.0384540304623099,-0.1570511434595609,106.0,-79.125,101.5625,0.04443359375,0.69091796875,0.119140625
1969/12/31/18:00:12.129,34,1731182888,176572500,RL_myo,0.6784363714168051,0.7185382783912397,0.0119023924809965,-0.152594775397392,80.375,-76.875,97.875,0.1767578125,0.75634765625,0.0859375
1969/12/31/18:00:12.152,35,1731182888,199125721,RL_myo,0.6733578183123705,0.7241404238993804,-0.0117800996133328,-0.1485635360562282,62.4375,-70.5,103.9375,0.16357421875,0.6904296875,-0.091796875
1969/12/31/18:00:12.174,36,1731182888,221722253,RL_myo,0.6663021860036655,0.7311866879935791,-0.0377221281559422,-0.141366422021298,77.5625,-65.25,123.1875,0.2373046875,0.65673828125,-0.13330078125
1969/12/31/18:00:12.195,37,1731182888,244201677,RL_myo,0.6606864058004284,0.7360696015841985,-0.06024551760209,-0.1344079328873377,63.5,-54.6875,107.75,0.35400390625,0.8408203125,0.01123046875
1969/12/31/18:00:12.210,38,1731182888,259063115,RL_myo,0.6575479325015561,0.7385435796220949,-0.0786762540605686,-0.1264679584278496,34.25,-38.8125,75.875,0.33544921875,0.86669921875,-0.171875
1969/12/31/18:00:12.231,39,1731182888,281653207,RL_myo,0.6526621257458342,0.7424466564642596,-0.0935687869417716,-0.1185326707377172,35.6875,-25.0,68.0,0.232421875,0.84521484375,-0.3046875
1969/12/31/18:00:12.246,40,1731182888,296633436,RL_myo,0.648418240645158,0.7455924700631276,-0.1065132100090182,-0.1109080244048058,39.3125,-18.0,68.375,0.12744140625,0.8876953125,-0.16845703125
1969/12/31/18:00:12.268,41,1731182888,319197543,RL_myo,0.6480269161584881,0.7453194568344444,-0.1152983747408292,-0.1061428658942837,6.125,-13.1875,49.5625,0.0703125,0.98583984375,-0.17919921875
1969/12/31/18:00:12.289,42,1731182888,341604654,RL_myo,0.6460695974374058,0.7465354035197836,-0.120729869034595,-0.1034565864578557,3.75,-9.8125,28.125,0.04541015625,0.93994140625,-0.34033203125
1969/12/31/18:00:12.308,43,1731182888,361042050,RL_myo,0.641873746137316,0.7495444658202967,-0.1275080121415797,-0.099613727053642,24.8125,-10.0625,36.0,0.048828125,0.8896484375,-0.2958984375
1969/12/31/18:00:12.326,44,1731182888,379199901,RL_myo,0.638741188477706,0.751474583137842,-0.1342790840564695,-0.0962536888895692,21.8125,-11.5,38.6875,0.021484375,0.98291015625,-0.23779296875
1969/12/31/18:00:12.348,45,1731182888,402456616,RL_myo,0.6373615859675141,0.7519914517448548,-0.1389841343849865,-0.0946703524071647,5.4375,-11.0,25.1875,0.03173828125,1.06591796875,-0.271484375
1969/12/31/18:00:12.362,46,1731182888,416645015,RL_myo,0.6386354426157592,0.7504561566434828,-0.1425836178868788,-0.0928990866540366,-12.625,-5.6875,20.9375,0.087890625,1.04150390625,-0.24560546875
1969/12/31/18:00:12.384,47,1731182888,439072628,RL_myo,0.641623158614338,0.7477668679779543,-0.1452685614062142,-0.0897857369027484,-20.625,4.25,26.0,0.06201171875,0.96826171875,-0.1845703125
1969/12/31/18:00:12.406,48,1731182888,462480061,RL_myo,0.643780006257446,0.7458985186750725,-0.1465550199131627,-0.0877743101354136,-15.5,6.0,22.5625,-0.04638671875,0.93603515625,-0.17431640625
1969/12/31/18:00:12.420,49,1731182888,476725691,RL_myo,0.6450663757899782,0.7446219453313725,-0.1475326864387185,-0.0875307705225992,-10.6875,-0.375,16.6875,-0.08544921875,1.0068359375,-0.1728515625
1969/12/31/18:00:12.442,50,1731182888,499330180,RL_myo,0.6454673678622794,0.7440422897627599,-0.148808457952552,-0.0873440948851935,-2.6875,-3.1875,12.375,-0.0126953125,0.98486328125,-0.14453125
1969/12/31/18:00:12.464,51,1731182888,522042253,RL_myo,0.6429856647167753,0.7460806701949065,-0.1501561358651288,-0.0859430241049192,14.5,0.625,10.0,0.03125,0.97802734375,-0.23828125
1969/12/31/18:00:12.478,52,1731182888,536725523,RL_myo,0.6413840994328288,0.7474676134044939,-0.1502137674823174,-0.08575796152485,16.5,0.625,5.125,-0.01171875,1.19970703125,-0.13525390625
1969/12/31/18:00:12.500,53,1731182888,559335427,RL_myo,0.6395383344259479,0.7487322722278205,-0.1505155118051524,-0.0879533059656223,5.5625,-8.875,5.1875,-0.12548828125,1.1845703125,-0.2724609375
1969/12/31/18:00:12.523,54,1731182888,582781491,RL_myo,0.6400387508926374,0.7475257087718987,-0.1524105246022234,-0.0912509949060168,-11.0,-19.4375,6.625,-0.06591796875,1.126953125,-0.22509765625
1969/12/31/18:00:12.536,55,1731182888,596704004,RL_myo,0.6381438771292818,0.7483160146920129,-0.154790327345754,-0.0939972808014437,6.0625,-21.8125,-2.5625,0.06298828125,0.89453125,-0.2060546875
1969/12/31/18:00:12.558,56,1731182888,619241357,RL_myo,0.6385642158451359,0.7474533920129549,-0.1573521839465456,-0.0937521158036827,-0.375,-8.75,12.5,0.0615234375,0.93408203125,-0.11572265625
1969/12/31/18:00:12.580,57,1731182888,642260276,RL_myo,0.635701283307082,0.7493523432703836,-0.1602833960599517,-0.0930815609259049,15.6875,-8.4375,16.5625,-0.00830078125,0.873046875,-0.234375
1969/12/31/18:00:12.602,58,1731182888,664537738,RL_myo,0.6312736290099951,0.7523155557482295,-0.1641360267267333,-0.0925973791537577,31.5,-13.8125,16.5625,0.0107421875,0.89208984375,-0.181640625
1969/12/31/18:00:12.616,59,1731182888,679148885,RL_myo,0.6268452597518275,0.7554492482909805,-0.1666297525922579,-0.0927145033654358,28.4375,-11.0625,8.375,0.01806640625,0.97705078125,-0.2412109375
1969/12/31/18:00:12.638,60,1731182888,702456792,RL_myo,0.6215420922864532,0.7593031157854736,-0.1685237863893643,-0.0935090332301724,31.25,-11.3125,6.3125,-0.0341796875,1.01953125,-0.30712890625
1969/12/31/18:00:12.652,61,1731182888,716648903,RL_myo,0.6173758607724535,0.7618473054040301,-0.1721816414472655,-0.0937507980372208,22.875,-15.6875,12.75,0.033203125,1.0185546875,-0.31494140625
1969/12/31/18:00:12.674,62,1731182888,739255413,RL_myo,0.6151447396003148,0.7628576062239268,-0.1758515573316637,-0.0933887131959199,12.375,-12.625,16.5625,0.05908203125,1.02001953125,-0.2841796875
1969/12/31/18:00:12.698,63,1731182888,764498794,RL_myo,0.6139883765861764,0.7629838659237703,-0.1790875730096273,-0.0938164961539868,4.6875,-13.3125,14.8125,0.03515625,1.01953125,-0.271484375
1969/12/31/18:00:12.699,64,1731182888,765105228,RL_myo,0.6139883765861764,0.7629838659237703,-0.1790875730096273,-0.0938164961539868,4.6875,-13.3125,14.8125,0.03515625,1.01953125,-0.271484375
1969/12/31/18:00:12.700,65,1731182888,766759061,RL_myo,0.6400387508926374,0.7475257087718987,-0.1524105246022234,-0.0912509949060168,-11.0,-19.4375,6.625,-0.06591796875,1.126953125,-0.22509765625
1969/12/31/18:00:12.710,66,1731182888,776678442,RL_myo,0.6133669370494094,0.7628480425160233,-0.1815868880208969,-0.0941810313331912,3.0,-10.5625,12.75,0.03076171875,0.98828125,-0.23876953125
1969/12/31/18:00:12.749,67,1731182888,816144753,RL_myo,0.6126992498094669,0.7627916442387834,-0.1840295116731961,-0.0942426421304858,2.125,-7.9375,15.9375,-0.00244140625,0.97705078125,-0.26025390625
1969/12/31/18:00:12.751,68,1731182888,818561474,RL_myo,0.6120825305344575,0.7624175198350527,-0.1878729586143857,-0.093692329913282,4.875,-11.125,23.25,0.01953125,0.9345703125,-0.20947265625
1969/12/31/18:00:12.768,69,1731182888,836694527,RL_myo,0.6116708825973787,0.7620707483512895,-0.1908686608005192,-0.0931453714044107,4.6875,-8.625,16.5625,0.06982421875,0.97314453125,-0.208984375
1969/12/31/18:00:12.790,70,1731182888,859107456,RL_myo,0.6107378521939537,0.7627203878688433,-0.1913515057593489,-0.0929595991296613,7.25,-0.75,4.375,0.0478515625,0.9560546875,-0.22998046875
1969/12/31/18:00:12.806,71,1731182888,875623885,RL_myo,0.6097832009970126,0.7633582293962602,-0.1926402184531102,-0.0913148817509039,8.5625,2.75,14.25,0.0341796875,0.94677734375,-0.236328125
1969/12/31/18:00:12.827,72,1731182888,896861613,RL_myo,0.6086007624496755,0.7640622148575908,-0.1941589635294772,-0.090090735671018,8.625,0.4375,14.25,0.03271484375,0.99072265625,-0.26611328125
1969/12/31/18:00:12.848,73,1731182888,919137901,RL_myo,0.6072464383334839,0.7650853457141644,-0.1943994276904358,-0.0900279924155079,5.375,0.125,3.9375,0.033203125,1.02001953125,-0.3203125
1969/12/31/18:00:12.870,74,1731182888,941660117,RL_myo,0.6053010481002596,0.766621071305764,-0.1945850298823865,-0.0896629262538349,7.4375,1.5,3.375,0.037109375,0.923828125,-0.3427734375
1969/12/31/18:00:12.884,75,1731182888,956684311,RL_myo,0.6033942132987119,0.7680062093807093,-0.1957399597460013,-0.0881348618251406,8.5625,1.6875,8.4375,0.08837890625,0.9365234375,-0.353515625
1969/12/31/18:00:12.914,76,1731182888,987604702,RL_myo,0.6013861794334595,0.7696620037202805,-0.195497811095643,-0.0879526524473373,8.25,1.75,-1.0625,0.0771484375,1.046875,-0.3779296875
1969/12/31/18:00:12.922,77,1731182888,995749210,RL_myo,0.5998621917583129,0.7710682812864028,-0.1939114960537403,-0.0895398692826053,2.8125,-0.4375,-9.25,0.0263671875,1.14013671875,-0.4052734375
1969/12/31/18:00:12.945,78,1731182889,19584473,RL_myo,0.5991978939279796,0.7717488204976443,-0.1925709845515713,-0.0910058123506791,-4.3125,-1.0,-10.5,0.08154296875,1.1123046875,-0.41650390625
1969/12/31/18:00:12.964,79,1731182889,39107100,RL_myo,0.5984720546627147,0.772611858023523,-0.1909250981116748,-0.091922377799291,-1.6875,1.375,-12.6875,0.11572265625,1.10546875,-0.39111328125
1969/12/31/18:00:12.981,80,1731182889,55932316,RL_myo,0.5965031996234585,0.7747278330932732,-0.1874410443102057,-0.0940562192386933,8.875,2.4375,-23.0,0.04833984375,1.18896484375,-0.37890625
1969/12/31/18:00:13.009,81,1731182889,84927670,RL_myo,0.5929036581126446,0.7782089397710745,-0.1820093379135172,-0.0986341683662789,15.75,-1.25,-38.1875,-0.025390625,1.23974609375,-0.42041015625
1969/12/31/18:00:13.023,82,1731182889,99175556,RL_myo,0.588460742341132,0.7820711017131963,-0.1771302846461949,-0.1034582468901793,18.5625,-6.5625,-43.125,0.03125,1.1611328125,-0.44384765625
1969/12/31/18:00:13.038,83,1731182889,115565994,RL_myo,0.5844724091231659,0.7855831639331943,-0.1721801029799969,-0.1077270052320789,18.625,-5.75,-46.5625,0.09765625,1.10302734375,-0.39599609375
1969/12/31/18:00:13.058,84,1731182889,136603379,RL_myo,0.5798736091520527,0.789543698355979,-0.1657217735629287,-0.1135941880665231,22.5625,-6.5,-54.375,-0.0029296875,1.1298828125,-0.38037109375
1969/12/31/18:00:13.081,85,1731182889,159148409,RL_myo,0.5736221378583636,0.7942084760388409,-0.1586952073240844,-0.1225004927305528,26.3125,-16.8125,-60.5,-0.1533203125,1.13037109375,-0.43359375
1969/12/31/18:00:13.097,86,1731182889,175733620,RL_myo,0.5669675528067125,0.7983567220057918,-0.1535676997375055,-0.1326321985411762,27.75,-31.0,-60.625,-0.10791015625,1.03076171875,-0.40185546875
1969/12/31/18:00:13.124,87,1731182889,204660185,RL_myo,0.5607365939860263,0.8017062329385496,-0.150331362902752,-0.1422746272538834,27.25,-37.375,-56.3125,-0.0263671875,0.97802734375,-0.3603515625
1969/12/31/18:00:13.141,88,1731182889,220840482,RL_myo,0.5544562059652922,0.8045230350978112,-0.1481967930519297,-0.1528355724061087,28.5625,-44.0625,-49.0,-0.1142578125,0.9013671875,-0.302734375
1969/12/31/18:00:13.154,89,1731182889,235683877,RL_myo,0.5469705790711709,0.8073630007113466,-0.1480806410921393,-0.1645001350961729,32.0625,-54.875,-40.125,-0.18603515625,0.78466796875,-0.31494140625
1969/12/31/18:00:13.177,90,1731182889,259005679,RL_myo,0.5394519375636881,0.809849321972733,-0.1499698360029397,-0.1750563653465328,35.125,-59.25,-34.4375,-0.0849609375,0.751953125,-0.2919921875
1969/12/31/18:00:13.197,91,1731182889,279144569,RL_myo,0.531336681656034,0.812844410064722,-0.1527173322806889,-0.1834194978031455,49.9375,-51.9375,-27.9375,-0.052734375,0.7978515625,-0.205078125
1969/12/31/18:00:13.214,92,1731182889,297160810,RL_myo,0.5201626780032685,0.8177211214749811,-0.1564394442293331,-0.1904984414513261,68.8125,-46.6875,-16.5,-0.18017578125,0.740234375,-0.24462890625
1969/12/31/18:00:13.235,93,1731182889,319469219,RL_myo,0.5047922998084708,0.8246975529277206,-0.1631571725983122,-0.1960571785955028,94.0625,-49.375,-1.0,-0.22216796875,0.619140625,-0.3037109375
1969/12/31/18:00:13.255,94,1731182889,339289358,RL_myo,0.4885442877316689,0.8320634345774751,-0.1718206109401109,-0.198677118511567,106.125,-44.375,7.25,-0.08251953125,0.72802734375,-0.32275390625
1969/12/31/18:00:13.284,95,1731182889,369362299,RL_myo,0.4721871417322806,0.8396337023874422,-0.1796947964399992,-0.1994099524352845,108.125,-33.1875,9.1875,-0.115234375,0.705078125,-0.3369140625
1969/12/31/18:00:13.293,96,1731182889,379605521,RL_myo,0.4579115891578005,0.8459339794905302,-0.1872664296902335,-0.1991079183994595,96.4375,-24.75,17.125,-0.1806640625,0.71142578125,-0.39013671875
1969/12/31/18:00:13.313,97,1731182889,399181536,RL_myo,0.4447797292120595,0.8514721040906039,-0.194709391544733,-0.1981274874464588,88.5,-20.4375,20.5,-0.18896484375,0.6923828125,-0.423828125
1969/12/31/18:00:13.330,98,1731182889,417061657,RL_myo,0.4340953930034723,0.855556119759515,-0.2016053266437667,-0.1973327341929451,73.5625,-20.0,19.9375,-0.1591796875,0.716796875,-0.4345703125
1969/12/31/18:00:13.352,99,1731182889,440505366,RL_myo,0.4266501034121621,0.8578169604226791,-0.208258963210629,-0.1968450047931649,53.125,-20.5625,21.25,-0.1220703125,0.76513671875,-0.47119140625
1969/12/31/18:00:13.371,100,1731182889,459265576,RL_myo,0.4230332464898108,0.8582124482604573,-0.2140495737180444,-0.1967156475886106,29.5,-19.75,19.9375,-0.0732421875,0.78271484375,-0.47607421875
1969/12/31/18:00:13.388,101,1731182889,477756393,RL_myo,0.4226198053538086,0.8570807779864501,-0.219000557713672,-0.1970882945533575,9.5625,-17.375,20.8125,-0.08837890625,0.80517578125,-0.466796875
1969/12/31/18:00:13.410,102,1731182889,499577127,RL_myo,0.4230979278843676,0.8552291063929254,-0.2244274496293738,-0.1979990880058985,0.3125,-17.4375,28.75,-0.1630859375,0.75048828125,-0.48095703125
1969/12/31/18:00:13.429,103,1731182889,519146261,RL_myo,0.4249918317769259,0.8526692359505463,-0.2303488687528534,-0.1981830357288063,-5.3125,-16.8125,31.625,-0.091796875,0.76708984375,-0.462890625
1969/12/31/18:00:13.451,104,1731182889,542355634,RL_myo,0.4265762596047076,0.8505890333168129,-0.235474489849043,-0.1976935906223562,-0.375,-10.625,28.8125,-0.109375,0.837890625,-0.46875
1969/12/31/18:00:13.467,105,1731182889,558689265,RL_myo,0.4284231145853168,0.8482399235492445,-0.2401830682281267,-0.1981281421775093,-2.625,-11.1875,29.25,-0.17529296875,0.89306640625,-0.47802734375
1969/12/31/18:00:13.488,106,1731182889,579809390,RL_myo,0.4320797293448692,0.844993893636159,-0.244879767499875,-0.1983086651563045,-12.25,-11.5625,28.125,-0.09814453125,0.96728515625,-0.4951171875
1969/12/31/18:00:13.503,107,1731182889,596503767,RL_myo,0.4362307311826949,0.8419430118838805,-0.2487864083252644,-0.1973323008134396,-15.375,-4.5625,26.0,-0.0546875,0.92138671875,-0.484375
1969/12/31/18:00:13.531,108,1731182889,624622980,RL_myo,0.4399705801010002,0.8394721681644084,-0.2515425583513071,-0.1960579222092692,-14.25,0.875,22.125,-0.07958984375,0.9130859375,-0.50048828125
1969/12/31/18:00:13.548,109,1731182889,641777209,RL_myo,0.4421030978433676,0.8379388826720627,-0.2534325641648022,-0.19538478754613,-9.125,0.75,16.3125,-0.12841796875,0.92041015625,-0.55078125
1969/12/31/18:00:13.561,110,1731182889,656333903,RL_myo,0.4448931860840711,0.8361355132618589,-0.255070465721681,-0.1946445836770617,-10.0625,0.4375,13.0625,-0.07470703125,0.97802734375,-0.53125
1969/12/31/18:00:13.583,111,1731182889,678761340,RL_myo,0.4487406519602883,0.8338812278402419,-0.2559872543962798,-0.1942793110976057,-16.5,2.0625,10.875,-0.08203125,0.9921875,-0.5068359375
1969/12/31/18:00:13.604,112,1731182889,699964992,RL_myo,0.4529569497297251,0.83126542223004,-0.2564172140970995,-0.1951358803781069,-21.25,-0.1875,9.9375,-0.1328125,0.99365234375,-0.490234375
1969/12/31/18:00:13.620,113,1731182889,716424726,RL_myo,0.4569314050301384,0.8287146254467258,-0.2571536213454412,-0.1957492674234108,-21.3125,-1.875,9.0,-0.08056640625,0.9580078125,-0.4921875
1969/12/31/18:00:13.641,114,1731182889,738716258,RL_myo,0.4599782070047887,0.8271794932761276,-0.2578221797224294,-0.1942211590617354,-12.5,5.0,7.375,0.00341796875,0.89501953125,-0.47314453125
1969/12/31/18:00:13.669,115,1731182889,767089944,RL_myo,0.461195583974351,0.8268072234669878,-0.2577592576923881,-0.1929989990109711,0.0,9.3125,7.3125,-0.12646484375,0.91015625,-0.4443359375
1969/12/31/18:00:13.679,116,1731182889,777660171,RL_myo,0.4603485469985699,0.8272479259442612,-0.2583127885041034,-0.1923917555210146,7.8125,5.0,9.875,-0.20361328125,0.90625,-0.5126953125
1969/12/31/18:00:13.700,117,1731182889,798835240,RL_myo,0.4602849444473683,0.8271212415072653,-0.2599593659198172,-0.1908647422473041,7.1875,1.875,10.4375,-0.06103515625,0.94140625,-0.49853515625
1969/12/31/18:00:13.720,118,1731182889,819830008,RL_myo,0.4607217379205951,0.8269552338829124,-0.2610024047891447,-0.1890985617485431,4.75,5.5625,8.6875,-0.05322265625,0.93408203125,-0.48486328125
1969/12/31/18:00:13.736,119,1731182889,836353799,RL_myo,0.4619831271507243,0.8263083069581856,-0.2613570815774081,-0.1883577659383188,-3.5,5.125,7.875,-0.107421875,0.9541015625,-0.515625
1969/12/31/18:00:13.757,120,1731182889,858657066,RL_myo,0.4632205711523444,0.8257887873395794,-0.2615496307007242,-0.187326911696738,-6.0,5.4375,5.4375,-0.06494140625,0.89404296875,-0.5244140625
1969/12/31/18:00:13.778,121,1731182889,879892337,RL_myo,0.4649196031803407,0.8252216141523181,-0.2618491660291009,-0.1851865663711636,-6.3125,9.3125,6.3125,-0.0078125,0.861328125,-0.49951171875
1969/12/31/18:00:13.799,122,1731182889,902110770,RL_myo,0.4653996226231351,0.825451081489217,-0.2614782928940998,-0.1834742643416582,-0.375,11.3125,5.5,-0.1015625,0.88134765625,-0.52490234375
1969/12/31/18:00:13.816,123,1731182889,918872728,RL_myo,0.4648736918721334,0.8261640519287454,-0.2608810608011421,-0.1824458331152582,4.4375,8.25,1.625,-0.11279296875,0.875,-0.52197265625
1969/12/31/18:00:13.836,124,1731182889,939764327,RL_myo,0.4661257470129266,0.8258671576315189,-0.2607423322298314,-0.1807862331612267,-2.9375,8.0625,2.625,-0.01220703125,0.9189453125,-0.51025390625
1969/12/31/18:00:13.852,125,1731182889,956311833,RL_myo,0.4668629234269343,0.8256314243948412,-0.2609280948686291,-0.1796894295422793,-6.4375,6.5625,7.0625,-0.0869140625,0.88916015625,-0.578125
1969/12/31/18:00:13.874,126,1731182889,978911811,RL_myo,0.4687023511450321,0.8243033275444275,-0.2602613394038829,-0.1819509973646751,-11.6875,-6.5,-4.0,-0.1083984375,1.24169921875,-0.63525390625
1969/12/31/18:00:13.895,127,1731182890,1335802,RL_myo,0.4702842576596816,0.8237451448896903,-0.257267767168794,-0.1846346371733338,-13.5,-6.375,-25.75,0.04833984375,0.9052734375,-0.4677734375
1969/12/31/18:00:13.909,128,1731182890,15664570,RL_myo,0.4722437430911624,0.823084771304682,-0.2572712132776592,-0.1825618502760329,-7.0625,9.9375,5.375,-0.00390625,0.8505859375,-0.45849609375
1969/12/31/18:00:13.938,129,1731182890,44821712,RL_myo,0.4694385575755503,0.8251644597404584,-0.2569063696314512,-0.1809148205245002,19.75,9.5,1.5,-0.1357421875,0.89990234375,-0.53076171875
1969/12/31/18:00:13.953,130,1731182890,61413841,RL_myo,0.4634549449706946,0.8291894412520594,-0.2545858785029326,-0.1812192455706562,40.8125,2.75,-20.125,-0.13427734375,0.953125,-0.48388671875
1969/12/31/18:00:13.967,131,1731182890,75587666,RL_myo,0.4576438511257831,0.8328898362846675,-0.2532361080716023,-0.1809090923895467,42.9375,2.125,-14.875,-0.11962890625,0.98681640625,-0.48486328125
1969/12/31/18:00:13.990,132,1731182890,99006193,RL_myo,0.454171722280618,0.8346725308678205,-0.2537892784898279,-0.1806676922390309,25.5625,-2.5,-1.875,-0.095703125,0.92333984375,-0.51171875
1969/12/31/18:00:14.011,133,1731182890,121514099,RL_myo,0.4533753340643114,0.8347892358639724,-0.2551304383937562,-0.1802392786068809,4.9375,-3.75,5.0,-0.0419921875,0.845703125,-0.53955078125
1969/12/31/18:00:14.026,134,1731182890,135727207,RL_myo,0.4552194136489308,0.8334702458267834,-0.2558091395283814,-0.1807327277841893,-12.8125,-4.875,2.125,-0.0078125,0.85302734375,-0.53271484375
1969/12/31/18:00:14.048,135,1731182890,158887106,RL_myo,0.4580162840779175,0.8319245671617825,-0.2544602729638643,-0.1826816015785191,-26.4375,-5.0,-8.4375,-0.0361328125,0.82177734375,-0.5712890625
1969/12/31/18:00:14.075,136,1731182890,187168707,RL_myo,0.4617978422101922,0.829661388998565,-0.2536042868600778,-0.1846336865828484,-37.5,-7.125,-5.6875,0.00439453125,0.72607421875,-0.59228515625
1969/12/31/18:00:14.085,137,1731182890,197349542,RL_myo,0.4690754273253582,0.825230940460487,-0.2528185322032054,-0.187202906389964,-63.6875,-10.0625,-4.75,0.072265625,0.7587890625,-0.6337890625
1969/12/31/18:00:14.105,138,1731182890,218707625,RL_myo,0.483058247599236,0.8169995759559987,-0.2472056991125733,-0.1950788677441443,-108.5625,-12.75,-24.3125,0.1484375,0.849609375,-0.623046875
1969/12/31/18:00:14.128,139,1731182890,241347914,RL_myo,0.5036071246219175,0.8050633830763655,-0.2348661029626879,-0.2075830603368247,-162.6875,-12.125,-58.875,0.31787109375,0.86474609375,-0.50732421875
1969/12/31/18:00:14.148,140,1731182890,262482403,RL_myo,0.5296121011288525,0.7899930188902544,-0.2141764276663758,-0.2225994390707531,-208.875,3.4375,-97.875,0.53955078125,0.8310546875,-0.3291015625
1969/12/31/18:00:14.164,141,1731182890,278934719,RL_myo,0.5597070389698694,0.7722370182166616,-0.1846361824300823,-0.2372498648283404,-246.0,33.5625,-131.0625,0.6728515625,0.693359375,-0.18603515625
1969/12/31/18:00:14.186,142,1731182890,301415164,RL_myo,0.5900990525494401,0.7530049660014938,-0.1500272518790363,-0.2495164384383648,-257.1875,60.125,-142.3125,0.5830078125,0.54541015625,-0.1083984375
1969/12/31/18:00:14.206,143,1731182890,322138090,RL_myo,0.6149549733695275,0.7358096480366902,-0.113713262073194,-0.2597765128199215,-225.375,74.375,-150.0,0.38525390625,0.54296875,0.00146484375
1969/12/31/18:00:14.222,144,1731182890,338878776,RL_myo,0.6333280391853138,0.7210393337409513,-0.0760530779515132,-0.2705804932255682,-190.8125,77.1875,-166.1875,0.20166015625,0.5302734375,0.08935546875
1969/12/31/18:00:14.244,145,1731182890,361430254,RL_myo,0.6471059410382911,0.7074097204898881,-0.0397956115409324,-0.2814990190594792,-164.75,72.125,-165.6875,0.021484375,0.474609375,0.17724609375
1969/12/31/18:00:14.264,146,1731182890,382558069,RL_myo,0.6576705632263259,0.69478088363854,-0.0073854420557202,-0.2910230390220995,-140.375,65.0625,-148.125,-0.13623046875,0.4775390625,0.2568359375
1969/12/31/18:00:14.280,147,1731182890,398873938,RL_myo,0.6647120467293088,0.6830236733609703,0.0205090218274607,-0.3020197619115353,-114.9375,44.0,-140.5,-0.25390625,0.5498046875,0.32275390625
1969/12/31/18:00:14.302,148,1731182890,421411127,RL_myo,0.6731251190108949,0.6681810552967234,0.0452290273111237,-0.3136733756435427,-127.375,24.0625,-129.6875,-0.31298828125,0.70703125,0.32666015625
1969/12/31/18:00:14.322,149,1731182890,442294986,RL_myo,0.6875453340488085,0.6497010418692754,0.0662275113141829,-0.3174647800415352,-161.4375,30.4375,-73.875,-0.46435546875,0.7568359375,0.24560546875
1969/12/31/18:00:14.343,150,1731182890,464692979,RL_myo,0.6994696681552421,0.6390442779742919,0.0776985067680299,-0.3103667768385171,-108.6875,47.4375,8.4375,-0.810546875,0.72314453125,0.2314453125
1969/12/31/18:00:14.360,151,1731182890,481291191,RL_myo,0.7138343754187041,0.6283207405352834,0.0814851552957648,-0.2983516397645682,-105.1875,34.0,61.1875,-0.83203125,0.74462890625,0.35498046875
1969/12/31/18:00:14.380,152,1731182890,502220037,RL_myo,0.7326951058697273,0.6103757962926752,0.0808747930087794,-0.2899285032390207,-140.9375,-10.9375,64.4375,-0.71826171875,0.7880859375,0.44189453125
1969/12/31/18:00:14.396,153,1731182890,518955646,RL_myo,0.7580284097327334,0.5840706862656032,0.0738557352263956,-0.2807128316580112,-192.375,-54.1875,96.75,-0.71240234375,0.89892578125,0.3017578125
1969/12/31/18:00:14.419,154,1731182890,542136428,RL_myo,0.7858706398931473,0.5568542017666162,0.0543242617091185,-0.2633811115447713,-189.25,-85.875,180.375,-0.85986328125,0.94775390625,0.2880859375
1969/12/31/18:00:14.438,155,1731182890,562219309,RL_myo,0.8081911638033282,0.5297402847707187,0.0346690265871377,-0.2549516268564687,-165.1875,-112.6875,133.3125,-0.77783203125,0.73828125,0.4638671875
1969/12/31/18:00:14.454,156,1731182890,578663166,RL_myo,0.8269357778786472,0.5014839349757134,0.0111698588243129,-0.254099028883142,-153.1875,-154.8125,103.5625,-0.703125,0.7333984375,0.50537109375
1969/12/31/18:00:14.483,157,1731182890,607624681,RL_myo,0.8414933434266219,0.478394489430468,-0.0236206516215349,-0.2499394532046142,-103.4375,-192.0,145.5,-0.62353515625,0.86962890625,0.40673828125
1969/12/31/18:00:14.496,158,1731182890,622355991,RL_myo,0.8562394878970825,0.4515582928045777,-0.0603054329941771,-0.2435411717072539,-119.25,-201.0625,163.0,-0.60791015625,0.92431640625,0.50634765625
1969/12/31/18:00:14.513,159,1731182890,638731020,RL_myo,0.8696542703456124,0.4226807848219656,-0.09387480823916,-0.2371284980553554,-129.6875,-188.6875,152.6875,-0.46728515625,0.869140625,0.541015625
1969/12/31/18:00:14.534,160,1731182890,661421287,RL_myo,0.8782016138892653,0.398999440505569,-0.1239663245627674,-0.2327954514438183,-98.8125,-172.6875,125.625,-0.47119140625,0.9921875,0.59228515625
1969/12/31/18:00:14.555,161,1731182890,682796691,RL_myo,0.8824892104345322,0.3823428146466945,-0.1585770486034662,-0.2233384991686231,-45.5625,-176.3125,149.875,-0.3037109375,0.94287109375,0.48291015625
1969/12/31/18:00:14.571,162,1731182890,698793921,RL_myo,0.8844826476066303,0.3692109264628049,-0.1918993474622349,-0.2110648675332087,-21.1875,-160.5,155.0625,-0.19287109375,0.923828125,0.4755859375
1969/12/31/18:00:14.598,163,1731182890,727135534,RL_myo,0.8857558285548968,0.3579156683190404,-0.2232700400257588,-0.1936064972557974,-6.9375,-137.3125,173.0625,-0.0400390625,0.90576171875,0.4912109375
1969/12/31/18:00:14.619,164,1731182890,749583752,RL_myo,0.8860092860364615,0.3480314789873176,-0.2533634986454499,-0.1722456740971958,6.5625,-121.75,187.375,0.11474609375,0.9462890625,0.5693359375
1969/12/31/18:00:14.635,165,1731182890,766381615,RL_myo,0.887448270862606,0.3318470597441533,-0.2794790668693172,-0.1555781047062436,-38.875,-116.3125,166.875,0.13720703125,1.01416015625,0.6220703125
1969/12/31/18:00:14.650,166,1731182890,781187090,RL_myo,0.8902587940372086,0.3112792986144086,-0.3024902360652959,-0.1380004890523878,-63.8125,-98.3125,171.3125,0.31103515625,0.77197265625,0.53515625
1969/12/31/18:00:14.672,167,1731182890,803841156,RL_myo,0.8909576067048826,0.2948088813033214,-0.3239235472208543,-0.1198157006207908,-34.75,-90.0625,159.625,0.48486328125,0.52783203125,0.740234375
1969/12/31/18:00:14.687,168,1731182890,819616428,RL_myo,0.8868882757317816,0.2939000032793206,-0.3419372416138638,-0.1006523583401037,56.0,-67.25,121.8125,0.93359375,0.4267578125,0.98583984375
1969/12/31/18:00:14.708,169,1731182890,841340354,RL_myo,0.8807967139990293,0.3075555846331583,-0.3502801151438174,-0.0831297293650251,123.625,-17.1875,68.0625,1.00634765625,0.61767578125,1.0380859375
1969/12/31/18:00:14.728,170,1731182890,862038658,RL_myo,0.8739289021869402,0.33448319485853,-0.346019202856388,-0.0681173805587809,178.875,44.5,10.9375,0.67529296875,0.76123046875,0.919921875
1969/12/31/18:00:14.751,171,1731182890,884861837,RL_myo,0.8662246795261584,0.3611507489258934,-0.3406426110791636,-0.0564584152030507,170.0625,41.875,-5.5,0.37646484375,0.71044921875,0.58154296875
1969/12/31/18:00:14.766,172,1731182890,901415180,RL_myo,0.8592153200992991,0.3803814644355212,-0.3384491688534924,-0.0501112295092366,120.5,15.875,-10.1875,0.36181640625,0.71923828125,0.40576171875
1969/12/31/18:00:14.795,173,1731182890,931514120,RL_myo,0.8558428646782722,0.3902623931502547,-0.336123709583743,-0.0474247543756252,56.0,10.5,-3.0,0.3271484375,0.67138671875,0.359375
1969/12/31/18:00:14.809,174,1731182890,944900336,RL_myo,0.8557122100350104,0.3897091627013938,-0.337096899859013,-0.0474242786873896,-5.1875,-4.4375,5.9375,0.3955078125,0.5810546875,0.3291015625
1969/12/31/18:00:14.809,1,1731182897,359326257,RL_myo,0.8636191440420324,0.3029899944183086,-0.3922267735963037,-0.0922886526108949,12.3125,-2.5,-5.5625,0.57421875,0.5439453125,0.525390625
1969/12/31/18:00:14.828,2,1731182897,379714839,RL_myo,0.8626723108619117,0.3055424924419647,-0.3922735914751313,-0.0925294483703592,16.9375,-3.4375,-8.8125,0.59765625,0.55078125,0.53564453125
1969/12/31/18:00:14.857,3,1731182897,409686377,RL_myo,0.8614042473120063,0.3093315896958299,-0.391974638718749,-0.0930192073197404,22.5625,-2.4375,-13.375,0.59375,0.5517578125,0.52734375
1969/12/31/18:00:14.868,4,1731182897,420332556,RL_myo,0.8598128899034782,0.3142739099959543,-0.3913622666331441,-0.0937511605658935,27.875,-0.125,-18.6875,0.61083984375,0.5654296875,0.52001953125
1969/12/31/18:00:14.887,5,1731182897,440305748,RL_myo,0.8580527850709818,0.3209305408950934,-0.3896577735021445,-0.0944236490613749,35.625,6.4375,-24.8125,0.646484375,0.60498046875,0.5263671875
1969/12/31/18:00:14.904,6,1731182897,457739463,RL_myo,0.8564652458909576,0.3297195879634373,-0.3855680557506541,-0.0953391329875766,46.6875,20.0625,-38.4375,0.75634765625,0.66455078125,0.60400390625
1969/12/31/18:00:14.925,7,1731182897,479565733,RL_myo,0.8544489443007811,0.3433909393982566,-0.3776934114817654,-0.096681700676651,70.75,42.1875,-66.0,0.91064453125,0.72216796875,0.6826171875
1969/12/31/18:00:14.945,8,1731182897,499822323,RL_myo,0.8511123164330594,0.3658000654319653,-0.362809208898315,-0.1008345917059247,100.1875,71.0,-102.8125,0.92529296875,0.86279296875,0.6826171875
1969/12/31/18:00:14.963,9,1731182897,517781321,RL_myo,0.8481768588081644,0.3907009263983204,-0.3418709402838607,-0.1052286200766605,105.375,102.1875,-119.375,0.771484375,1.107421875,0.60205078125
1969/12/31/18:00:14.989,10,1731182897,544851131,RL_myo,0.8483775512159906,0.4097531118291204,-0.315692401963386,-0.1126775278469471,59.1875,122.0625,-128.75,0.4892578125,1.26806640625,0.57373046875
1969/12/31/18:00:15.004,11,1731182897,561340535,RL_myo,0.8535297586440648,0.4193184669539992,-0.2826584891505051,-0.1255513954183953,-15.8125,145.1875,-148.4375,0.30810546875,1.51123046875,0.5224609375
1969/12/31/18:00:15.019,12,1731182897,575745713,RL_myo,0.8665115472772928,0.4092996010453987,-0.2473131499308016,-0.1430656523785289,-141.5625,144.0625,-139.0625,0.119140625,1.361328125,0.38427734375
1969/12/31/18:00:15.041,13,1731182897,598808714,RL_myo,0.881324971244879,0.3932666244013266,-0.2056363895092456,-0.1622385049912658,-183.625,168.875,-153.4375,-0.029296875,1.044921875,0.25390625
1969/12/31/18:00:15.062,14,1731182897,621204739,RL_myo,0.8912446280958142,0.3834268424666418,-0.163087635000138,-0.1790790123841336,-134.1875,177.5,-157.0,-0.14111328125,0.5673828125,0.2802734375
1969/12/31/18:00:15.067,15,1731182897,626589694,RL_myo,0.8910726380417127,0.3925260726930785,-0.1201199364111302,-0.1936079462886713,-9.625,191.875,-171.6875,-0.4169921875,0.29443359375,0.35791015625
1969/12/31/18:00:15.089,16,1731182897,649170716,RL_myo,0.8793246286366457,0.4221441851763877,-0.0796556046349314,-0.205517563835873,125.0,195.625,-174.8125,-0.8203125,0.2373046875,0.20703125
1969/12/31/18:00:15.112,17,1731182897,671834092,RL_myo,0.8593115511536613,0.4587999808240693,-0.0516966321348924,-0.2200311202435506,194.6875,135.375,-175.375,-0.54345703125,0.67822265625,0.55029296875
1969/12/31/18:00:15.127,18,1731182897,688179684,RL_myo,0.8433567797324735,0.4859204837121098,-0.0194710004150437,-0.2285858826154818,131.3125,160.3125,-146.875,-0.78466796875,0.96240234375,0.54150390625
1969/12/31/18:00:15.147,19,1731182897,709385991,RL_myo,0.8294498332687453,0.5047259306276588,0.0183114982692342,-0.2385988224481216,80.9375,173.6875,-166.8125,-0.80126953125,0.89111328125,0.62255859375
1969/12/31/18:00:15.162,20,1731182897,724106327,RL_myo,0.8156683708150189,0.5178188011070503,0.0601802614205034,-0.2508528138319161,49.0,180.8125,-191.0625,-0.73388671875,0.69287109375,0.59375
1969/12/31/18:00:15.183,21,1731182897,746805553,RL_myo,0.8008023207679539,0.5302873904597548,0.1018703562013502,-0.2591010557667655,49.6875,190.3125,-169.875,-0.96240234375,0.4306640625,0.52685546875
1969/12/31/18:00:15.200,22,1731182897,763228942,RL_myo,0.7856098888404088,0.544634996357934,0.1328779992234923,-0.2617885800043907,71.75,162.875,-112.125,-0.85546875,0.3505859375,0.46923828125
1969/12/31/18:00:15.220,23,1731182897,784228765,RL_myo,0.7698058280933041,0.561911865955198,0.1545471262870477,-0.2603252344448098,97.875,139.375,-64.5,-0.7490234375,0.298828125,0.421875
1969/12/31/18:00:15.249,24,1731182897,814684249,RL_myo,0.756962024775391,0.5791656711089893,0.1647347609150766,-0.2538465619287898,100.0625,102.5,-0.3125,-0.76904296875,0.2919921875,0.34814453125
1969/12/31/18:00:15.259,25,1731182897,824710416,RL_myo,0.7514246424862403,0.5896159569829487,0.1644943068394458,-0.2462836838950515,70.5,44.875,62.25,-0.75,0.412109375,0.36328125
1969/12/31/18:00:15.278,26,1731182897,844080801,RL_myo,0.7500796242301645,0.5998073453747113,0.1495398388285379,-0.2350522119708978,61.75,-9.625,109.1875,-0.591796875,0.6640625,0.408203125
1969/12/31/18:00:15.300,27,1731182897,866920642,RL_myo,0.7461951196592799,0.6119715558040032,0.1308664487975047,-0.2270630548165661,85.6875,-32.5625,104.4375,-0.39599609375,0.6298828125,0.27392578125
1969/12/31/18:00:15.316,28,1731182897,883095563,RL_myo,0.742770566710953,0.6210609348577489,0.1113331838015266,-0.2240092020567998,83.9375,-52.875,83.3125,-0.23046875,0.4697265625,0.27490234375
1969/12/31/18:00:15.336,29,1731182897,904289495,RL_myo,0.7383970723707113,0.6323100994203685,0.0853334799681122,-0.2183389541101127,94.75,-72.125,116.3125,-0.080078125,0.478515625,0.19775390625
1969/12/31/18:00:15.358,30,1731182897,926720877,RL_myo,0.7316503839901014,0.6471141545893931,0.0530411432124299,-0.2076478356831838,123.625,-74.625,156.0,0.1416015625,0.5,0.1640625
1969/12/31/18:00:15.380,31,1731182897,949343251,RL_myo,0.7232414201354103,0.6616538943596799,0.0219737455691406,-0.1966039846616724,128.25,-67.75,149.5625,0.208984375,0.60400390625,0.23095703125
1969/12/31/18:00:15.395,32,1731182897,965593754,RL_myo,0.7175586776766623,0.6713531724877175,-0.007385556311575,-0.1853103219995191,93.375,-66.5625,147.25,0.14794921875,0.767578125,0.07568359375
1969/12/31/18:00:15.415,33,1731182897,986701854,RL_myo,0.7115658652299787,0.6798267804882058,-0.035645433633068,-0.1738935623640598,85.8125,-63.75,141.875,0.267578125,0.79345703125,-0.09423828125
1969/12/31/18:00:15.432,34,1731182898,3041526,RL_myo,0.7054211080548745,0.6865602339189433,-0.0592683132232658,-0.1658414078554204,76.0625,-58.875,109.0625,0.35888671875,0.86181640625,0.0078125
1969/12/31/18:00:15.452,35,1731182898,24242759,RL_myo,0.7019335255970723,0.6897870237193491,-0.0805697611989683,-0.1580876375040363,40.8125,-54.1875,89.1875,0.21826171875,0.8447265625,-0.09765625
1969/12/31/18:00:15.473,36,1731182898,46737679,RL_myo,0.6995449539760991,0.6914270341716473,-0.0999175542848681,-0.1502730718688732,21.9375,-46.9375,82.25,0.2626953125,0.87939453125,-0.201171875
1969/12/31/18:00:15.488,37,1731182898,61726678,RL_myo,0.698396548628622,0.691804446963538,-0.1139579056362207,-0.1437444390858595,14.5,-30.6875,55.6875,0.31494140625,1.021484375,-0.0888671875
1969/12/31/18:00:15.518,38,1731182898,91802086,RL_myo,0.69600690622441,0.6931991961756225,-0.1232340562717779,-0.1409348370141333,15.1875,-26.8125,43.375,-0.0048828125,1.01904296875,-0.1259765625
1969/12/31/18:00:15.531,39,1731182898,106712197,RL_myo,0.6930668776334509,0.6945927844534276,-0.1337304737027645,-0.1389795931634846,4.8125,-35.5,52.1875,-0.095703125,1.00537109375,-0.31396484375
1969/12/31/18:00:15.546,40,1731182898,121589213,RL_myo,0.6916530174821257,0.6943385745567121,-0.145203188191844,-0.1357427030427327,6.4375,-33.75,48.625,0.1396484375,0.9453125,-0.14404296875
1969/12/31/18:00:15.568,41,1731182898,144345676,RL_myo,0.6920827686632373,0.69293726718703,-0.153016271367734,-0.132081057534813,-1.5,-17.5,34.25,0.2080078125,0.99169921875,-0.05615234375
1969/12/31/18:00:15.590,42,1731182898,167408188,RL_myo,0.691321620196874,0.6932748509797011,-0.1558922318543895,-0.1309275009113804,0.1875,-6.6875,15.375,0.0341796875,1.09033203125,-0.11279296875
1969/12/31/18:00:15.604,43,1731182898,181642827,RL_myo,0.6900091465473324,0.6942206132533709,-0.1578994836017646,-0.1304333963884696,9.0625,-6.6875,13.625,-0.04052734375,1.02294921875,-0.0400390625
1969/12/31/18:00:15.626,44,1731182898,204188422,RL_myo,0.6913047657419872,0.692769653114211,-0.1597947975200885,-0.1289711257295443,-6.4375,-1.5625,19.875,-0.0185546875,1.0,0.01416015625
1969/12/31/18:00:15.649,45,1731182898,226930449,RL_myo,0.6910002373271841,0.6931975704729997,-0.1605273937081966,-0.1273842854254777,4.25,3.4375,14.625,-0.0419921875,0.9921875,-0.02197265625
1969/12/31/18:00:15.664,46,1731182898,243202821,RL_myo,0.6890708052415522,0.6949916014244232,-0.1612043579274461,-0.1272055592278673,16.625,-2.1875,11.1875,-0.1083984375,1.0234375,-0.00146484375
1969/12/31/18:00:15.684,47,1731182898,264201942,RL_myo,0.6896059017555944,0.6939395908177867,-0.1629100860139566,-0.1278743462717269,-2.25,-9.625,16.5,-0.1064453125,1.07958984375,0.03076171875
1969/12/31/18:00:15.707,48,1731182898,287343433,RL_myo,0.6928960315474308,0.6900272759552243,-0.1655943387586486,-0.1278122172357575,-18.75,-10.5625,22.3125,-0.02734375,0.978515625,0.103515625
1969/12/31/18:00:15.720,49,1731182898,301718975,RL_myo,0.6956007241707098,0.6866279875567143,-0.167613161510422,-0.1287923418743592,-22.875,-11.9375,11.625,0.02294921875,0.96240234375,0.01513671875
1969/12/31/18:00:15.742,50,1731182898,324070947,RL_myo,0.6964511071523989,0.6852199937679957,-0.166940734273603,-0.1325149302040191,-13.375,-12.1875,-12.3125,0.01025390625,1.15380859375,0.0009765625
1969/12/31/18:00:15.764,51,1731182898,346679172,RL_myo,0.6993676546042827,0.6819109301133747,-0.1661440701547266,-0.1351980585572077,-31.8125,-6.9375,0.25,-0.072265625,1.06298828125,-0.04150390625
1969/12/31/18:00:15.786,52,1731182898,369611728,RL_myo,0.7051172570260648,0.6753914862355789,-0.1673676868737421,-0.1365432222963389,-53.6875,-9.625,15.0625,-0.02294921875,0.93603515625,-0.03515625
1969/12/31/18:00:15.800,53,1731182898,384319920,RL_myo,0.7094875407256075,0.6700580025882414,-0.1682774561063747,-0.1390410029054485,-42.75,-13.1875,0.1875,0.07470703125,0.939453125,0.00390625
1969/12/31/18:00:15.823,54,1731182898,406735631,RL_myo,0.7126785513952406,0.6658014421564992,-0.1694412177692007,-0.1417300099640072,-33.6875,-15.5,6.75,-0.04248046875,0.9462890625,0.01953125
1969/12/31/18:00:15.837,55,1731182898,421893977,RL_myo,0.7131019445099989,0.6639056621103533,-0.1734077398230682,-0.1436824426411484,-14.5,-25.125,18.5625,-0.080078125,0.95556640625,-0.037109375
1969/12/31/18:00:15.859,56,1731182898,444118291,RL_myo,0.7132778677253335,0.6624951203397886,-0.175969544125632,-0.1461835096014182,-4.375,-21.125,-0.4375,0.08251953125,1.01806640625,0.10009765625
1969/12/31/18:00:15.880,57,1731182898,466695486,RL_myo,0.7128458606318915,0.6623686342646875,-0.177982578097662,-0.1464266820494826,-0.9375,-9.375,7.3125,0.04541015625,0.97900390625,0.0087890625
1969/12/31/18:00:15.894,58,1731182898,481650072,RL_myo,0.7113191624994801,0.662978268669071,-0.1815835342745798,-0.1466706665081732,5.8125,-17.0625,19.6875,-0.06591796875,1.0078125,-0.0205078125
1969/12/31/18:00:15.917,59,1731182898,504193825,RL_myo,0.7099695861886722,0.6627277997624315,-0.1862815661148407,-0.1484393082540277,1.8125,-27.625,14.125,0.00341796875,0.9375,-0.01171875
1969/12/31/18:00:15.940,60,1731182898,528017352,RL_myo,0.7093775915637466,0.6614631698310378,-0.1915356119710064,-0.1502132380690397,-2.0625,-29.5625,12.6875,0.08203125,0.96875,0.0244140625
1969/12/31/18:00:15.953,61,1731182898,541845359,RL_myo,0.7101816370825319,0.6589704300767525,-0.1961773770161803,-0.1513752006845448,-11.8125,-24.4375,16.75,0.0712890625,0.9609375,0.033203125
1969/12/31/18:00:15.975,62,1731182898,564290032,RL_myo,0.7110369626133058,0.6562244299987683,-0.2015489785002263,-0.1522299068381479,-12.0,-26.5625,23.625,0.03662109375,0.92138671875,0.03662109375
1969/12/31/18:00:15.997,63,1731182898,586867851,RL_myo,0.7114300561701072,0.6542397711125068,-0.2064221388098235,-0.1524057009485893,-10.3125,-21.5,18.4375,0.11279296875,0.962890625,-0.01123046875
1969/12/31/18:00:16.010,64,1731182898,601614516,RL_myo,0.7107791802455561,0.6536482817732641,-0.2102734457660748,-0.1527152863009344,1.0,-17.8125,14.9375,0.0712890625,0.94970703125,0.02392578125
1969/12/31/18:00:16.033,65,1731182898,624199165,RL_myo,0.7090480383638506,0.6538110172121517,-0.2153328294178931,-0.1530157038975788,5.375,-23.5625,20.9375,0.0302734375,0.94091796875,-0.03271484375
1969/12/31/18:00:16.054,66,1731182898,646651920,RL_myo,0.7072966953127116,0.6534620659318164,-0.2211980690208203,-0.1542404857658976,0.125,-30.0625,18.625,0.078125,1.0439453125,-0.07373046875
1969/12/31/18:00:16.069,67,1731182898,661826518,RL_myo,0.7073163206215957,0.6515269594679766,-0.2262704177204224,-0.1549772297254255,-7.9375,-24.5625,16.875,0.142578125,1.033203125,0.001953125
1969/12/31/18:00:16.091,68,1731182898,684145575,RL_myo,0.7083907586077577,0.6493073315586185,-0.2293144994045619,-0.1549108862094166,-10.4375,-12.625,16.25,0.11181640625,0.96630859375,0.0478515625
1969/12/31/18:00:16.112,69,1731182898,706777256,RL_myo,0.7080871887281045,0.6486984433930088,-0.2321227117259703,-0.1546670921676594,-1.5625,-11.4375,16.8125,0.0478515625,0.9296875,0.0068359375
1969/12/31/18:00:16.127,70,1731182898,721680607,RL_myo,0.7055904353588736,0.6502907005461452,-0.2358478756251459,-0.1537527946945504,19.0,-13.8125,17.5,0.0693359375,0.96435546875,0.0234375
1969/12/31/18:00:16.149,71,1731182898,744210192,RL_myo,0.7021299875301367,0.6534820174300308,-0.2386008972663917,-0.1518036407013344,34.5625,-6.25,14.1875,0.08154296875,0.9658203125,0.083984375
1969/12/31/18:00:16.170,72,1731182898,766773432,RL_myo,0.6953245268005818,0.6605949221877367,-0.2414592545666346,-0.1477686691875183,68.5625,-0.8125,17.625,0.0400390625,0.92626953125,0.1044921875
1969/12/31/18:00:16.192,73,1731182898,789604691,RL_myo,0.6827549091744777,0.6731111334146379,-0.2464045743194498,-0.1416048086254951,110.8125,-3.1875,16.25,0.07470703125,0.857421875,0.00927734375
1969/12/31/18:00:16.207,74,1731182898,804248689,RL_myo,0.6674784695659359,0.6878641506956928,-0.2509758107950922,-0.1353755710952126,127.875,-3.1875,9.1875,0.1181640625,0.970703125,-0.14599609375
1969/12/31/18:00:16.228,75,1731182898,826764977,RL_myo,0.6528613666604924,0.7015696099846391,-0.2553825690078067,-0.1278743982006106,123.9375,2.375,16.5,0.0810546875,1.11962890625,-0.14501953125
1969/12/31/18:00:16.244,76,1731182898,841794769,RL_myo,0.6402193492795056,0.7131588213348978,-0.2583705315568831,-0.1215250952822476,105.0625,4.75,10.5625,0.0986328125,0.99560546875,-0.1845703125
1969/12/31/18:00:16.265,77,1731182898,864101224,RL_myo,0.627322044476193,0.7244293973426673,-0.2611095258094136,-0.1161504038371468,96.625,2.125,9.0,0.0986328125,0.92626953125,-0.28466796875
1969/12/31/18:00:16.286,78,1731182898,886674173,RL_myo,0.6157643642237698,0.7339974702409627,-0.2635676570894367,-0.1123122948227335,80.25,-0.8125,8.0625,0.08056640625,1.00830078125,-0.36572265625
1969/12/31/18:00:16.308,79,1731182898,909584456,RL_myo,0.6060318178746225,0.7419601951942705,-0.2649596254802836,-0.1096216280494331,63.6875,-0.5,1.3125,0.1083984375,1.048828125,-0.4140625
1969/12/31/18:00:16.331,80,1731182898,932378404,RL_myo,0.5974890604705777,0.7491044273322506,-0.2649606713150248,-0.1079130308419635,53.1875,1.875,-5.5,0.10302734375,1.0771484375,-0.4580078125
1969/12/31/18:00:16.345,81,1731182898,946856732,RL_myo,0.5925484244338021,0.7533812528622187,-0.2638024608985262,-0.1082188253524032,26.6875,0.5,-9.8125,0.10595703125,1.2001953125,-0.458984375
1969/12/31/18:00:16.359,82,1731182898,961706038,RL_myo,0.5903483045938909,0.7558802113410612,-0.2612987067789957,-0.1088897203676076,9.9375,4.4375,-18.25,0.17578125,1.16748046875,-0.42822265625
1969/12/31/18:00:16.381,83,1731182898,984104318,RL_myo,0.5879660618461772,0.7592959420083508,-0.2564149720560355,-0.1096218257111734,13.4375,13.0,-29.5,0.15625,1.169921875,-0.41015625
1969/12/31/18:00:16.402,84,1731182899,6741634,RL_myo,0.58466915913374,0.7636893745778635,-0.2495174363230743,-0.1126124437417006,21.625,9.8125,-42.5625,0.06103515625,1.224609375,-0.35791015625
1969/12/31/18:00:16.417,85,1731182899,21652026,RL_myo,0.5808141537763205,0.7680711760320741,-0.2423721106185128,-0.1182258318479122,17.5625,-0.375,-49.875,0.0,1.25146484375,-0.41162109375
1969/12/31/18:00:16.439,86,1731182899,44224544,RL_myo,0.5763672418152689,0.7724773707946672,-0.2359058974495408,-0.1242091853324231,17.875,-7.4375,-56.0,0.076171875,1.1455078125,-0.4228515625
1969/12/31/18:00:16.469,87,1731182899,74622852,RL_myo,0.5710467449867787,0.7774072670902736,-0.2291267080675894,-0.13055461602466,27.875,-9.3125,-61.0,0.05810546875,1.1044921875,-0.34423828125
1969/12/31/18:00:16.479,88,1731182899,84752362,RL_myo,0.5634352253761227,0.7834136190772976,-0.2227250717579321,-0.1385546486408621,36.25,-18.6875,-64.25,-0.02294921875,1.052734375,-0.3974609375
1969/12/31/18:00:16.498,89,1731182899,105629519,RL_myo,0.5544101088824906,0.7896513903570166,-0.217479160844249,-0.1475904044124036,39.3125,-30.0,-67.25,-0.00146484375,0.98193359375,-0.4384765625
1969/12/31/18:00:16.518,90,1731182899,126511738,RL_myo,0.545791911477529,0.7949445152184453,-0.213690167980634,-0.1565596346387678,39.8125,-36.125,-63.1875,0.0419921875,0.96923828125,-0.396484375
1969/12/31/18:00:16.536,91,1731182899,144620220,RL_myo,0.5377286118081327,0.7992685779372869,-0.2109409855174695,-0.1658962959017599,37.75,-40.6875,-56.5,-0.00732421875,0.93017578125,-0.34423828125
1969/12/31/18:00:16.556,92,1731182899,165611891,RL_myo,0.5292635907072659,0.8032037354534555,-0.2091784483166648,-0.1760346206434961,38.125,-47.5625,-52.375,-0.05224609375,0.85400390625,-0.3271484375
1969/12/31/18:00:16.592,93,1731182899,202071132,RL_myo,0.5200994052667327,0.8070971054855072,-0.208625720831087,-0.1859198202608224,40.5,-52.4375,-49.625,-0.02001953125,0.7607421875,-0.34375
1969/12/31/18:00:16.602,94,1731182899,212074733,RL_myo,0.511009665617873,0.810889083580201,-0.2089328816782105,-0.1941006613312035,43.75,-48.4375,-43.75,0.02294921875,0.734375,-0.326171875
1969/12/31/18:00:16.617,95,1731182899,228696682,RL_myo,0.5020231632932232,0.8145287676775761,-0.2103919567017313,-0.2006261565647203,48.5,-43.125,-30.9375,-0.025390625,0.697265625,-0.283203125
1969/12/31/18:00:16.635,96,1731182899,246744970,RL_myo,0.4923839536555066,0.8182594871334724,-0.2126522492296746,-0.2068537521927001,52.0,-41.75,-20.875,-0.1298828125,0.6787109375,-0.3056640625
1969/12/31/18:00:16.652,97,1731182899,264581578,RL_myo,0.4814573394228267,0.8225913493155979,-0.2158257038791981,-0.2120414296595968,61.5625,-40.6875,-16.5625,-0.13330078125,0.68359375,-0.33447265625
1969/12/31/18:00:16.673,98,1731182899,285646312,RL_myo,0.4707706464723903,0.8264274022087599,-0.2202789139269877,-0.2164946821000347,62.375,-40.0625,-6.3125,-0.16357421875,0.69287109375,-0.3427734375
1969/12/31/18:00:16.693,99,1731182899,306681675,RL_myo,0.4628363849654162,0.8285033745906052,-0.2260165018497871,-0.2197297884578001,49.875,-38.5,4.625,-0.10595703125,0.7314453125,-0.3388671875
1969/12/31/18:00:16.710,100,1731182899,324566134,RL_myo,0.4565446371998916,0.829959087786648,-0.2326058305305865,-0.2205208254282364,43.625,-28.9375,16.0,-0.05908203125,0.6416015625,-0.32275390625
1969/12/31/18:00:16.736,101,1731182899,351757477,RL_myo,0.4494698361131745,0.8320441072643664,-0.2403601595075612,-0.2188754525124719,49.3125,-20.375,27.625,-0.07080078125,0.56640625,-0.357421875
1969/12/31/18:00:16.751,102,1731182899,366620392,RL_myo,0.4415545328719022,0.8344611582653824,-0.2476953683154796,-0.2176032498877981,59.125,-19.0625,26.875,-0.158203125,0.7392578125,-0.380859375
1969/12/31/18:00:16.769,103,1731182899,384627595,RL_myo,0.4352376376643953,0.835502457157188,-0.2550025031779335,-0.2178934744722887,46.5625,-25.0,27.375,-0.1884765625,0.8486328125,-0.44873046875
1969/12/31/18:00:16.788,104,1731182899,405515928,RL_myo,0.433357549788938,0.8343048377556329,-0.2628832347804163,-0.2168618837183235,21.0625,-22.75,33.0,-0.01953125,0.8408203125,-0.46826171875
1969/12/31/18:00:16.810,105,1731182899,426832406,RL_myo,0.4362294919889729,0.8313202295914105,-0.2700875195258437,-0.2136895832451929,2.25,-6.25,41.4375,0.0322265625,0.83984375,-0.3623046875
1969/12/31/18:00:16.826,106,1731182899,443791316,RL_myo,0.4382908438056548,0.8292186887541605,-0.2755110526303754,-0.2106921031635037,4.875,2.3125,38.375,-0.09423828125,0.80908203125,-0.36083984375
1969/12/31/18:00:16.853,107,1731182899,472081572,RL_myo,0.4379441884137505,0.8283401506568654,-0.2799180554795066,-0.2090534976051701,14.5625,-1.0625,31.1875,-0.1904296875,0.8935546875,-0.4404296875
1969/12/31/18:00:16.870,108,1731182899,488805639,RL_myo,0.4366630724234631,0.827670011470808,-0.2846794198746201,-0.2079551422626137,20.8125,-6.875,27.3125,-0.15234375,0.97021484375,-0.4619140625
1969/12/31/18:00:16.883,109,1731182899,503690924,RL_myo,0.4386740801120694,0.8255886472235775,-0.2888888856505391,-0.2061835317404439,5.6875,-2.6875,25.875,-0.03759765625,1.03076171875,-0.439453125
1969/12/31/18:00:16.912,110,1731182899,533667084,RL_myo,0.4419654830842056,0.8231996230295099,-0.2924870314790103,-0.2036178499611808,-7.375,3.8125,27.5625,-0.02001953125,0.9033203125,-0.46240234375
1969/12/31/18:00:16.919,111,1731182899,540603799,RL_myo,0.4442200257490778,0.8214835568228688,-0.2959025398229636,-0.2006863760185446,-1.6875,7.0,28.875,-0.0615234375,0.86865234375,-0.4638671875
1969/12/31/18:00:16.942,112,1731182899,563818570,RL_myo,0.4450602792889545,0.8206027777070752,-0.2980292572364186,-0.1992761672899665,6.0625,4.25,18.9375,-0.123046875,0.9833984375,-0.48193359375
1969/12/31/18:00:16.964,113,1731182899,586214088,RL_myo,0.4461841892845356,0.8193675180513825,-0.2992058681084533,-0.2000809538269094,0.875,-3.6875,10.25,-0.134765625,1.08837890625,-0.51025390625
1969/12/31/18:00:16.977,114,1731182899,600498498,RL_myo,0.4500850538379173,0.8167328594257082,-0.3003618863488461,-0.2003836766680068,-17.9375,-2.25,10.625,-0.015625,1.02099609375,-0.51318359375
1969/12/31/18:00:17.005,115,1731182899,629778380,RL_myo,0.4547745129376542,0.814272819366695,-0.3016367793501391,-0.1978766569512649,-23.125,10.875,17.1875,0.03173828125,0.8369140625,-0.5009765625
1969/12/31/18:00:17.023,116,1731182899,646907874,RL_myo,0.4578935300211948,0.8130021087553074,-0.3028005601753063,-0.194095098036177,-10.6875,18.375,20.4375,-0.02978515625,0.8232421875,-0.49365234375
1969/12/31/18:00:17.036,117,1731182899,661254024,RL_myo,0.4573410565379444,0.813667906673874,-0.303286762303089,-0.1918354385024368,11.875,11.8125,11.4375,-0.11669921875,0.9638671875,-0.51904296875
1969/12/31/18:00:17.057,118,1731182899,683625885,RL_myo,0.4561191116755752,0.8145202121384385,-0.3032249092471909,-0.1912245653525461,11.0,3.9375,1.625,-0.09619140625,1.02685546875,-0.57421875
1969/12/31/18:00:17.080,119,1731182899,706270400,RL_myo,0.4578436003558486,0.8133880573712889,-0.3039676216200674,-0.1907427344503435,-5.1875,1.5,7.5,-0.0205078125,1.025390625,-0.5380859375
1969/12/31/18:00:17.101,120,1731182899,728602019,RL_myo,0.4617433636216521,0.8112400589418873,-0.304573613281169,-0.1895192523523106,-18.625,6.25,10.0,0.03564453125,0.94921875,-0.5126953125
1969/12/31/18:00:17.117,121,1731182899,744955045,RL_myo,0.4645538599769588,0.8099021374371654,-0.3048806373124306,-0.1878723927222545,-14.875,10.6875,11.75,-0.033203125,0.83349609375,-0.50048828125
1969/12/31/18:00:17.138,122,1731182899,766076461,RL_myo,0.4648624558480251,0.8099691162162937,-0.3049439114255164,-0.1867140562551351,1.0,7.4375,6.875,-0.0703125,0.88818359375,-0.50244140625
1969/12/31/18:00:17.158,123,1731182899,787280715,RL_myo,0.4641908121037912,0.810701165859639,-0.3043944220856813,-0.1861035879164312,11.375,5.25,-1.375,-0.048828125,0.98583984375,-0.4765625
1969/12/31/18:00:17.173,124,1731182899,803725501,RL_myo,0.4644785037153762,0.8109758053700662,-0.3037115682638255,-0.1853031192220607,5.5,6.375,-0.4375,-0.03271484375,1.0,-0.48779296875
1969/12/31/18:00:17.196,125,1731182899,826077285,RL_myo,0.4649642735257535,0.8109714232523874,-0.3036488922014471,-0.1842034887766768,-0.75,6.5625,3.4375,-0.02392578125,0.9248046875,-0.53759765625
1969/12/31/18:00:17.209,126,1731182899,840650122,RL_myo,0.4656389598885723,0.8110382093327236,-0.3036510454116721,-0.1821906272470033,-2.0625,9.625,4.1875,0.01611328125,0.84130859375,-0.5263671875
1969/12/31/18:00:17.232,127,1731182899,863922972,RL_myo,0.465531519505681,0.8117351092049366,-0.3034774767250879,-0.1796327864042505,5.5,12.1875,3.875,0.0048828125,0.86474609375,-0.52294921875
1969/12/31/18:00:17.260,128,1731182899,892054240,RL_myo,0.4640022825683303,0.813316287190608,-0.3023766519131161,-0.1782886960513145,12.625,10.6875,-1.6875,-0.0810546875,0.90185546875,-0.5224609375
1969/12/31/18:00:17.275,129,1731182899,908789411,RL_myo,0.4622184109101159,0.8148178774131846,-0.3013910620723824,-0.1777340568559695,12.3125,6.0625,-3.125,-0.0859375,0.9208984375,-0.54736328125
1969/12/31/18:00:17.290,130,1731182899,923725611,RL_myo,0.4613068437771193,0.815496260876699,-0.3014546839660217,-0.1768810840521423,5.125,3.3125,0.9375,-0.01611328125,0.87353515625,-0.55810546875
1969/12/31/18:00:17.312,131,1731182899,946319193,RL_myo,0.4613171011371878,0.8155754307217655,-0.3022548670060008,-0.1751149461712876,2.1875,4.5625,5.75,0.033203125,0.8330078125,-0.53076171875
1969/12/31/18:00:17.332,132,1731182899,967160183,RL_myo,0.4606474179429711,0.8161888528863668,-0.3025001461939002,-0.1735896722710759,3.9375,6.875,4.6875,-0.02734375,0.81396484375,-0.55029296875
1969/12/31/18:00:17.349,133,1731182899,983743321,RL_myo,0.4586863332626738,0.8175175978336996,-0.3028001196694777,-0.171999745460308,12.75,6.0,3.875,-0.0458984375,0.822265625,-0.546875
1969/12/31/18:00:17.370,134,1731182900,6048173,RL_myo,0.4572200384890257,0.8184305828459947,-0.303653676609652,-0.1700460589014051,8.75,4.625,5.375,0.0146484375,0.8388671875,-0.59814453125
1969/12/31/18:00:17.390,135,1731182900,27081842,RL_myo,0.4564246952555466,0.8183051470033582,-0.3054224625646904,-0.1696181102052907,-3.4375,-2.9375,10.625,-0.0283203125,0.9833984375,-0.7626953125
1969/12/31/18:00:17.406,136,1731182900,43592463,RL_myo,0.4596687393215187,0.815757894175023,-0.3050012867334523,-0.1738330327430202,-18.75,-17.75,-8.875,0.052734375,1.30126953125,-0.60595703125
1969/12/31/18:00:17.428,137,1731182900,66172407,RL_myo,0.461922554704406,0.814895352518304,-0.3027399407153612,-0.1758455179840636,-19.3125,-3.0,-16.9375,0.068359375,0.908203125,-0.552734375
1969/12/31/18:00:17.448,138,1731182900,87255638,RL_myo,0.4651553615889114,0.813304709771978,-0.3020671676293823,-0.1758447181128006,-14.375,5.1875,1.9375,0.009765625,0.9462890625,-0.4609375
1969/12/31/18:00:17.465,139,1731182900,103815607,RL_myo,0.4633797805833827,0.815003979205731,-0.3003545706336705,-0.1755984758612213,11.3125,5.25,-10.125,-0.0390625,0.8388671875,-0.49755859375
1969/12/31/18:00:17.486,140,1731182900,126124859,RL_myo,0.4598394162156465,0.8175668941078558,-0.2992557283919982,-0.1748659314385223,22.625,3.875,-9.625,-0.037109375,0.81005859375,-0.50048828125
1969/12/31/18:00:17.506,141,1731182900,147213508,RL_myo,0.4552176269575176,0.8202218384359242,-0.2992668309161583,-0.1745061940830709,25.0625,-2.6875,-6.625,-0.03955078125,0.79443359375,-0.56103515625
1969/12/31/18:00:17.528,142,1731182900,169331219,RL_myo,0.4524513892526148,0.8215901997476661,-0.2999252835272291,-0.1741324448317429,18.0,-5.0,-4.0625,0.03369140625,0.86279296875,-0.53955078125
1969/12/31/18:00:17.544,143,1731182900,185978927,RL_myo,0.453501269034095,0.8214293510983648,-0.2992009718445671,-0.1734047248083262,-2.5625,3.4375,-5.375,0.07275390625,0.93408203125,-0.5390625
1969/12/31/18:00:17.564,144,1731182900,207174295,RL_myo,0.4587522768987288,0.8192964093682328,-0.2968217565937358,-0.1737716514543215,-35.6875,9.8125,-5.6875,0.0283203125,0.92138671875,-0.6015625
1969/12/31/18:00:17.580,145,1731182900,223744134,RL_myo,0.4654128954111337,0.8163189591119347,-0.2941409498998365,-0.1746290221339349,-51.875,9.125,-7.0625,0.04931640625,0.8388671875,-0.6328125
1969/12/31/18:00:17.602,146,1731182900,246181728,RL_myo,0.4745595376773759,0.8117256966651348,-0.2912056018339242,-0.1763347272475806,-68.25,6.125,-8.75,0.11083984375,0.84716796875,-0.5927734375
1969/12/31/18:00:17.622,147,1731182900,266989976,RL_myo,0.4846207482944882,0.807070548450632,-0.286194797072148,-0.1785284242772516,-84.5625,9.5,-22.0,0.1650390625,0.69384765625,-0.62744140625
1969/12/31/18:00:17.638,148,1731182900,283056718,RL_myo,0.5006909551153262,0.7990424592727948,-0.2760117638707187,-0.1861645023895825,-121.8125,9.125,-43.0625,0.24853515625,0.81884765625,-0.53466796875
1969/12/31/18:00:17.666,149,1731182900,312062873,RL_myo,0.5214227396267138,0.7887564162701654,-0.2587887646046197,-0.1975095382689975,-163.375,16.25,-79.0,0.35009765625,0.873046875,-0.51171875
1969/12/31/18:00:17.680,150,1731182900,327201900,RL_myo,0.5458456916990061,0.775829653045518,-0.2357823892467025,-0.2110627755669421,-197.4375,26.375,-105.375,0.40234375,0.83984375,-0.38720703125
1969/12/31/18:00:17.696,151,1731182900,343088985,RL_myo,0.5752659442364618,0.7583744676008529,-0.208072318716403,-0.2250403752148365,-238.125,40.5,-116.875,0.46142578125,0.7734375,-0.20458984375
1969/12/31/18:00:17.718,152,1731182900,366145640,RL_myo,0.6066923076442897,0.7376133337908694,-0.176026218837639,-0.2384654774613923,-262.75,56.25,-127.875,0.4794921875,0.64599609375,-0.087890625
1969/12/31/18:00:17.740,153,1731182900,388703497,RL_myo,0.6354006961678937,0.715970236892353,-0.1408135836752479,-0.2526343401958609,-257.9375,60.9375,-145.875,0.41845703125,0.505859375,0.0517578125
1969/12/31/18:00:17.754,154,1731182900,403127535,RL_myo,0.6586600676669716,0.695343850510809,-0.1040696335253624,-0.2680174550204496,-233.9375,60.125,-163.75,0.32568359375,0.41552734375,0.16748046875
1969/12/31/18:00:17.776,155,1731182900,426134222,RL_myo,0.6759798918138028,0.6765292208455251,-0.0667739956337968,-0.2844303653139793,-203.0625,58.375,-178.5,0.21435546875,0.384765625,0.29345703125
1969/12/31/18:00:17.803,156,1731182900,454521792,RL_myo,0.6900884778500276,0.6577997104006499,-0.0292979364379986,-0.3003648858570658,-189.1875,60.3125,-180.5625,0.0654296875,0.36279296875,0.384765625
1969/12/31/18:00:17.820,157,1731182900,471092092,RL_myo,0.7005240460369486,0.6405855069406444,0.0053712743793022,-0.3144637000246021,-164.375,58.4375,-166.0625,-0.13134765625,0.345703125,0.3955078125
1969/12/31/18:00:17.834,158,1731182900,486386625,RL_myo,0.7073130977162337,0.6264982425750278,0.0335711256251232,-0.3257009569739233,-127.0625,48.5,-135.875,-0.33447265625,0.4453125,0.4375
1969/12/31/18:00:17.856,159,1731182900,508669857,RL_myo,0.7115588708711044,0.6151828666589347,0.0546883469120354,-0.3350271609376816,-93.75,32.1875,-105.625,-0.46630859375,0.5224609375,0.48388671875
1969/12/31/18:00:17.870,160,1731182900,523127020,RL_myo,0.7187755519063054,0.6015228485085462,0.0712305595341931,-0.3412596901076897,-107.5625,18.5,-71.5625,-0.55517578125,0.609375,0.4404296875
1969/12/31/18:00:17.892,161,1731182900,546213964,RL_myo,0.7297627409481215,0.5869353058679438,0.0813628081033661,-0.3410767979606978,-115.25,9.3125,-14.4375,-0.73876953125,0.6494140625,0.431640625
1969/12/31/18:00:17.927,162,1731182900,582079444,RL_myo,0.7445831534377609,0.5722773708199399,0.0828874434272054,-0.3335029387969445,-116.9375,-5.8125,54.875,-0.9375,0.7685546875,0.3740234375
1969/12/31/18:00:17.938,163,1731182900,593326674,RL_myo,0.7634462920859498,0.554151653809429,0.0762347632567437,-0.3228838251626698,-132.0,-40.625,101.9375,-1.03662109375,0.8427734375,0.3681640625
1969/12/31/18:00:17.950,164,1731182900,606241366,RL_myo,0.7857327902108991,0.5290100281797454,0.0617086810303129,-0.3145860949853938,-162.5,-99.0625,118.875,-0.99560546875,1.0517578125,0.23828125
1969/12/31/18:00:17.972,165,1731182900,628759095,RL_myo,0.8076146732209334,0.5007687082688034,0.0413237951606508,-0.3086771523300023,-164.5625,-138.375,122.4375,-0.8701171875,1.0869140625,0.26025390625
1969/12/31/18:00:17.992,166,1731182900,649707880,RL_myo,0.8290126350780329,0.4732855229270407,0.0175177901831391,-0.2973751699381664,-152.125,-136.3125,156.9375,-0.748046875,0.9736328125,0.470703125
1969/12/31/18:00:18.008,167,1731182900,666196606,RL_myo,0.8464077572355192,0.4488701699509633,-0.0126958111707642,-0.2862661268792518,-116.25,-166.0625,173.0,-1.08349609375,0.86376953125,0.45068359375
1969/12/31/18:00:18.030,168,1731182900,688784954,RL_myo,0.8612761539143989,0.4245650149974175,-0.0436405959924027,-0.2757597380331127,-103.0625,-165.6875,162.0625,-0.54296875,0.73291015625,0.7421875
1969/12/31/18:00:18.051,169,1731182900,710257676,RL_myo,0.867262973749984,0.4132148872044051,-0.0791028794411977,-0.2661787478727342,-11.625,-174.1875,152.5625,-0.5869140625,0.7314453125,0.66748046875
1969/12/31/18:00:18.072,170,1731182900,732024956,RL_myo,0.8701591444810411,0.4082838466213302,-0.110356883643499,-0.2528808456498985,21.125,-135.875,153.875,-0.5498046875,0.8876953125,0.64794921875
1969/12/31/18:00:18.088,171,1731182900,748674542,RL_myo,0.8708814542487402,0.4060207060318629,-0.1394093945545362,-0.239327598970375,36.0625,-120.75,143.5,-0.365234375,0.98681640625,0.69384765625
1969/12/31/18:00:18.108,172,1731182900,769810895,RL_myo,0.8716426035399265,0.4021275540701005,-0.1656609261909916,-0.2260288908199123,23.5625,-110.25,138.3125,-0.3759765625,0.9091796875,0.58251953125
1969/12/31/18:00:18.125,173,1731182900,786440525,RL_myo,0.8709604551336604,0.3998031383506535,-0.1919055064083137,-0.2115599507669259,36.8125,-106.3125,140.6875,-0.296875,0.87060546875,0.61767578125
1969/12/31/18:00:18.147,174,1731182900,808742278,RL_myo,0.8700896975840013,0.3960723989914124,-0.2169273086786068,-0.197517380665158,29.4375,-99.8125,132.625,0.06396484375,0.77587890625,0.61572265625
1969/12/31/18:00:18.167,175,1731182900,829803947,RL_myo,0.8709476865295795,0.3890546326960221,-0.2361550633669453,-0.1852495780094802,-0.1875,-75.75,115.3125,0.20068359375,0.7900390625,0.59912109375
1969/12/31/18:00:18.195,176,1731182900,859410090,RL_myo,0.8728450371052533,0.3796570720835437,-0.2526367558446604,-0.1737144738182902,-18.625,-66.75,113.1875,0.00732421875,0.77392578125,0.54833984375
1969/12/31/18:00:18.207,177,1731182900,870799852,RL_myo,0.8750686730997598,0.3665803480949401,-0.2703270665521961,-0.1636977178805577,-38.5,-80.9375,114.8125,-0.07373046875,0.70703125,0.5537109375
1969/12/31/18:00:18.224,178,1731182900,889506651,RL_myo,0.8775243213158271,0.349862238977695,-0.2904735511679781,-0.1522254752286063,-53.75,-90.5625,131.375,0.11669921875,0.66455078125,0.43701171875
1969/12/31/18:00:18.241,179,1731182900,906196536,RL_myo,0.8807586631478185,0.328804360247907,-0.3099440396025379,-0.1417270697040356,-79.3125,-88.0625,128.875,0.521484375,0.6826171875,0.47705078125
1969/12/31/18:00:18.268,180,1731182900,934508630,RL_myo,0.8844717327235975,0.3055458901396956,-0.3259929283332229,-0.1344621645980322,-98.1875,-78.6875,109.4375,0.67041015625,0.65087890625,0.6630859375
1969/12/31/18:00:18.282,181,1731182900,949500187,RL_myo,0.8873140322598553,0.2818749536339004,-0.3409600456905517,-0.1302557711248903,-105.9375,-80.3125,93.0625,0.59716796875,0.5556640625,0.55908203125
1969/12/31/18:00:18.299,182,1731182900,966136667,RL_myo,0.8882774457713781,0.2603855963485672,-0.3565195190510973,-0.1267136657336206,-91.3125,-81.125,79.25,0.6142578125,0.43408203125,0.5009765625
1969/12/31/18:00:18.322,183,1731182900,990780299,RL_myo,0.8861296874247543,0.2470152118065836,-0.3728727276813489,-0.1213408057997252,-30.6875,-81.5625,59.4375,0.92578125,0.38916015625,0.74267578125
1969/12/31/18:00:18.358,184,1731182901,27044802,RL_myo,0.8847370913353161,0.2456144915856027,-0.3794695065078758,-0.1136516360169961,26.8125,-20.9375,33.9375,1.2802734375,0.71142578125,1.09912109375
1969/12/31/18:00:18.360,185,1731182901,29310612,RL_myo,0.8853359128351359,0.2497617756167787,-0.3754361392519076,-0.1133449700196378,19.8125,24.875,-14.0,0.76708984375,0.63427734375,0.75244140625
1969/12/31/18:00:18.379,186,1731182901,48796991,RL_myo,0.8861275828860468,0.2559259508913896,-0.3697589817553155,-0.1120629730113501,31.3125,34.3125,-15.125,0.52490234375,0.45556640625,0.57275390625
1969/12/31/18:00:18.398,187,1731182901,69616984,RL_myo,0.8868736993045333,0.2615453407790726,-0.3648816912899174,-0.1091349053239164,37.5625,29.625,-6.375,0.40185546875,0.3095703125,0.51806640625
1969/12/31/18:00:18.415,188,1731182901,86154007,RL_myo,0.8873895929174748,0.2631834324685433,-0.3635251678531178,-0.1054686853677279,18.0,8.9375,14.75,0.34521484375,0.3486328125,0.4814453125
1969/12/31/18:00:18.437,189,1731182901,109509774,RL_myo,0.8871256951942925,0.2605100087442714,-0.3672043609666206,-0.1015061257126812,-2.1875,-14.75,30.1875,0.48681640625,0.4140625,0.47802734375
1969/12/31/18:00:18.456,190,1731182901,129486196,RL_myo,0.8864303710714037,0.2561694049016512,-0.3725656534476243,-0.0990619357053562,-9.1875,-21.875,20.3125,0.72314453125,0.4208984375,0.5673828125
1969/12/31/18:00:18.479,191,1731182901,152490411,RL_myo,0.8863283184275863,0.2536726459186728,-0.3745272751099558,-0.0990031356304348,-6.125,-8.3125,0.25,0.74853515625,0.453125,0.646484375
1969/12/31/18:00:18.495,192,1731182901,168825560,RL_myo,0.8862477062056695,0.2551929517662468,-0.3733593125936694,-0.1002216758670598,5.625,4.8125,-12.3125,0.62939453125,0.515625,0.6064453125
1969/12/31/18:00:18.515,193,1731182901,189578266,RL_myo,0.8859502461596084,0.2582470197382916,-0.3717145710721333,-0.1011381025068185,12.4375,7.125,-12.5,0.556640625,0.52001953125,0.56640625
1969/12/31/18:00:18.537,194,1731182901,212278882,RL_myo,0.8860445130683241,0.2592154747538178,-0.3706653115563775,-0.1016842432163551,1.3125,5.5,-4.9375,0.52734375,0.505859375,0.5107421875
1969/12/31/18:00:18.553,195,1731182901,229623828,RL_myo,0.8869958402339461,0.2568454786474294,-0.3698867872156423,-0.1022376845851816,-16.125,2.8125,3.4375,0.509765625,0.49365234375,0.52783203125
1969/12/31/18:00:18.574,196,1731182901,249777571,RL_myo,0.8883294134633827,0.2528754129434378,-0.3694556781430435,-0.1021145464287645,-19.625,0.75,8.1875,0.54345703125,0.4482421875,0.5869140625
1969/12/31/18:00:18.594,197,1731182901,271892673,RL_myo,0.8894424501983662,0.2495834599822343,-0.3692174980270324,-0.1013837434655151,-10.5,0.375,7.0,0.56787109375,0.3896484375,0.62060546875
1969/12/31/18:00:18.624,198,1731182901,302321363,RL_myo,0.8899847160745848,0.2489100659867057,-0.36866522769978,-0.1002842664090626,2.8125,1.3125,4.6875,0.544921875,0.4189453125,0.6328125
1969/12/31/18:00:18.635,199,1731182901,313478008,RL_myo,0.8899282806735441,0.2500710676213656,-0.3683619460812646,-0.0990029952848071,11.9375,0.6875,2.875,0.548828125,0.45654296875,0.6220703125
1969/12/31/18:00:18.648,200,1731182901,326913684,RL_myo,0.889755420789561,0.2515388687023243,-0.3681220376471045,-0.097722331665232,12.5,0.5,3.0,0.53857421875,0.46826171875,0.603515625
1969/12/31/18:00:18.648,201,1731182901,327681836,RL_myo,0.889755420789561,0.2515388687023243,-0.3681220376471045,-0.097722331665232,12.5,0.5,3.0,0.53857421875,0.46826171875,0.603515625
1969/12/31/18:00:18.648,1,1731182906,899326889,RL_myo,0.900722961917314,0.2788170014256482,-0.332956817595646,0.0099490304799432,3.0625,-0.1875,1.3125,0.55908203125,0.4482421875,0.5810546875
1969/12/31/18:00:18.668,2,1731182906,920300799,RL_myo,0.9005481915098716,0.2794909969448083,-0.3328378262371784,0.0108036484951367,6.3125,0.6875,2.375,0.55712890625,0.4443359375,0.591796875
1969/12/31/18:00:18.684,3,1731182906,935839152,RL_myo,0.9000744092545155,0.2810214688870059,-0.3327821564665413,0.012207709334796,13.0625,1.0625,3.1875,0.56689453125,0.44091796875,0.59423828125
1969/12/31/18:00:18.708,4,1731182906,961052044,RL_myo,0.8992496935871749,0.2835752444448526,-0.3327706054053673,0.0140994148658547,18.875,0.625,4.5625,0.56591796875,0.46142578125,0.59375
1969/12/31/18:00:18.725,5,1731182906,979506552,RL_myo,0.8980594295559055,0.287186135802388,-0.3327818942390265,0.0164193561170759,25.6875,0.25,5.5,0.568359375,0.4775390625,0.59716796875
1969/12/31/18:00:18.762,6,1731182907,17061454,RL_myo,0.8961360495418185,0.2927304518187277,-0.3329534225753044,0.0197757853188631,37.8125,-2.3125,9.4375,0.552734375,0.5185546875,0.61669921875
1969/12/31/18:00:18.773,7,1731182907,28009237,RL_myo,0.8930682327410622,0.300598759311764,-0.3338629874995633,0.0245972182746479,58.25,-6.5,10.75,0.6201171875,0.51025390625,0.67822265625
1969/12/31/18:00:18.784,8,1731182907,39866495,RL_myo,0.8883917691655651,0.3134854088927751,-0.3339938001287511,0.0305794762179284,90.0625,-2.375,3.125,0.71875,0.5439453125,0.70849609375
1969/12/31/18:00:18.806,9,1731182907,62136475,RL_myo,0.8820580592304512,0.3338770731430744,-0.3303368774863471,0.0371110165394861,129.5,15.0,-12.9375,0.84521484375,0.62451171875,0.75146484375
1969/12/31/18:00:18.821,10,1731182907,78586862,RL_myo,0.8749686806925837,0.3612793596804606,-0.3192857459855532,0.0443130284048005,168.625,52.9375,-38.6875,1.03076171875,0.7060546875,0.69873046875
1969/12/31/18:00:18.836,11,1731182907,93262393,RL_myo,0.8695124559439213,0.3900171692742985,-0.2988910920088012,0.0499881160619171,170.0625,100.125,-68.1875,1.0615234375,0.9140625,0.62109375
1969/12/31/18:00:18.864,12,1731182907,122336765,RL_myo,0.8655097497412224,0.4157864890858397,-0.2732642559655467,0.0578023789143115,153.9375,132.375,-59.0,0.7822265625,1.26708984375,0.595703125
1969/12/31/18:00:18.879,13,1731182907,138770647,RL_myo,0.8647844313191111,0.4344675029735624,-0.2436631458092809,0.0633573009393871,106.4375,152.9375,-65.6875,0.5517578125,1.56103515625,0.54541015625
1969/12/31/18:00:18.894,14,1731182907,153058469,RL_myo,0.8694722608736789,0.4428235347587603,-0.2110659935486965,0.0581072370903294,26.5625,151.0625,-112.4375,0.228515625,1.517578125,0.45361328125
1969/12/31/18:00:18.915,15,1731182907,175534933,RL_myo,0.8764439968700328,0.445516034066047,-0.177071107662091,0.0448018590223973,-16.5,140.625,-149.8125,-0.04150390625,1.28955078125,0.3564453125
1969/12/31/18:00:18.937,16,1731182907,198844893,RL_myo,0.8791926406993631,0.4544896141799123,-0.1407538343135747,0.0254528833082223,22.5625,130.8125,-192.75,-0.1396484375,1.09228515625,0.3525390625
1969/12/31/18:00:18.959,17,1731182907,219914373,RL_myo,0.8750260618982795,0.4737079566401051,-0.0996123418678845,0.0027466638382688,92.0,138.75,-230.125,-0.2822265625,0.84619140625,0.32177734375
1969/12/31/18:00:18.980,18,1731182907,242297732,RL_myo,0.8600540297776622,0.5067183702515188,-0.057373556737705,-0.0158692816508546,196.3125,148.375,-219.875,-0.3857421875,0.73876953125,0.38330078125
1969/12/31/18:00:18.996,19,1731182907,258873804,RL_myo,0.8363017751608822,0.5471578069149805,-0.0174572883509241,-0.0302145375304457,261.75,147.625,-195.5,-0.45947265625,0.8544921875,0.4521484375
1969/12/31/18:00:19.017,20,1731182907,279931733,RL_myo,0.8090446828873509,0.5858325813921383,0.0201421912752037,-0.0429089711105098,265.875,142.0,-180.75,-0.51708984375,0.9169921875,0.45703125
1969/12/31/18:00:19.031,21,1731182907,295697345,RL_myo,0.7829348589581078,0.6173997114182007,0.0547511162770267,-0.0532251654331854,231.4375,135.25,-159.6875,-0.57421875,0.81201171875,0.443359375
1969/12/31/18:00:19.054,22,1731182907,318884115,RL_myo,0.7585226254620178,0.6435875563588569,0.0831341285812559,-0.0593902401685477,201.875,120.5,-120.0,-0.59765625,0.67529296875,0.384765625
1969/12/31/18:00:19.075,23,1731182907,339869534,RL_myo,0.7389849031778102,0.6627486643020288,0.1030928802731743,-0.0635403720333774,156.1875,87.625,-81.25,-0.642578125,0.68505859375,0.38330078125
1969/12/31/18:00:19.089,24,1731182907,355726892,RL_myo,0.7220064725235323,0.6787922885226311,0.1144443432227257,-0.0696431976624693,136.8125,41.4375,-59.125,-0.595703125,0.74658203125,0.33544921875
1969/12/31/18:00:19.117,25,1731182907,384678751,RL_myo,0.7021567058951244,0.6974569435208263,0.11950824323215,-0.0790414581131942,160.75,5.1875,-49.375,-0.48193359375,0.58984375,0.13525390625
1969/12/31/18:00:19.134,26,1731182907,401498641,RL_myo,0.6845582501676207,0.7135520235808727,0.1185387536179687,-0.0903995335263706,144.75,-29.375,-34.3125,-0.41455078125,0.4833984375,0.06787109375
1969/12/31/18:00:19.148,27,1731182907,415784657,RL_myo,0.6716575312450958,0.7258589023597491,0.1084027422293066,-0.1012613453594705,116.3125,-68.125,3.375,-0.3271484375,0.53857421875,0.1279296875
1969/12/31/18:00:19.171,28,1731182907,438948881,RL_myo,0.6604482094781389,0.7374191144829386,0.0906437699699663,-0.1086504448124849,109.5,-84.1875,45.9375,-0.125,0.46240234375,0.150390625
1969/12/31/18:00:19.198,29,1731182907,467392884,RL_myo,0.6541285185422494,0.7453170980609692,0.0684219529052777,-0.1092553931315318,80.3125,-77.25,81.375,0.0341796875,0.4716796875,0.083984375
1969/12/31/18:00:19.214,30,1731182907,483851491,RL_myo,0.6494185454276135,0.7514089955600892,0.0443728648990483,-0.1080329723126762,57.6875,-79.4375,104.0625,0.01123046875,0.61865234375,-0.076171875
1969/12/31/18:00:19.241,31,1731182907,512221576,RL_myo,0.6428070619759874,0.7583548512002343,0.0165417067510675,-0.1068801790447207,70.375,-93.375,119.75,0.02685546875,0.580078125,-0.1484375
1969/12/31/18:00:19.263,32,1731182907,535551277,RL_myo,0.6340734984221772,0.7661009317189782,-0.0144662513598436,-0.1040715551414913,84.6875,-97.3125,135.375,0.21826171875,0.5146484375,-0.123046875
1969/12/31/18:00:19.265,33,1731182907,537236872,RL_myo,0.6291165446443433,0.7696865846478286,-0.0443744763710524,-0.0991253777532175,53.25,-87.0625,137.6875,0.44384765625,0.5810546875,-0.1005859375
1969/12/31/18:00:19.277,34,1731182907,549251067,RL_myo,0.6261165125841531,0.7706518900260789,-0.070680729340266,-0.0952785997410667,31.875,-79.625,119.875,0.423828125,0.73583984375,-0.20068359375
1969/12/31/18:00:19.298,35,1731182907,571726629,RL_myo,0.6215296163067525,0.7722275071700907,-0.0945447683059176,-0.0917981481808264,38.4375,-72.375,109.5625,0.29150390625,0.744140625,-0.28759765625
1969/12/31/18:00:19.321,36,1731182907,594281296,RL_myo,0.6142887822525663,0.7753686805399791,-0.1172544466123986,-0.0877729798170896,54.875,-66.375,105.0,0.25439453125,0.73193359375,-0.32373046875
1969/12/31/18:00:19.335,37,1731182907,609214353,RL_myo,0.6022679335366431,0.7819655920277626,-0.1391069849528741,-0.0803268065809488,74.5625,-54.5625,88.5,0.38916015625,0.6953125,-0.45849609375
1969/12/31/18:00:19.357,38,1731182907,631921205,RL_myo,0.5902456557283363,0.788621910238894,-0.1563204885543194,-0.0724531120320098,75.25,-37.3125,67.25,0.45263671875,0.8955078125,-0.5146484375
1969/12/31/18:00:19.379,39,1731182907,654131996,RL_myo,0.5813738815032506,0.7935982369874294,-0.1671793240354229,-0.0652481553099186,58.8125,-14.25,49.75,0.3369140625,1.10498046875,-0.50390625
1969/12/31/18:00:19.401,40,1731182907,676885936,RL_myo,0.5768679209516874,0.7959934987970538,-0.1735914048446301,-0.0590235191577908,28.75,1.6875,38.0625,0.23828125,1.1064453125,-0.505859375
1969/12/31/18:00:19.415,41,1731182907,691822338,RL_myo,0.5782675691045213,0.7945838309692482,-0.1767640785440884,-0.0547504759855135,-16.0625,9.8125,26.5,0.19140625,1.060546875,-0.52392578125
1969/12/31/18:00:19.437,42,1731182907,714185042,RL_myo,0.5813215553697969,0.7923283400100098,-0.1776802864008272,-0.0520650238062197,-23.25,13.0,18.6875,0.1083984375,1.09619140625,-0.44384765625
1969/12/31/18:00:19.451,43,1731182907,729186431,RL_myo,0.5852249252999141,0.7892113354326126,-0.17932737072707,-0.0499894883000239,-25.5,9.0,25.0625,0.046875,1.0263671875,-0.34033203125
1969/12/31/18:00:19.472,44,1731182907,751766849,RL_myo,0.5892545841568158,0.785550704174251,-0.1829289402028151,-0.0471818721310564,-25.8125,3.8125,31.5625,0.123046875,0.91162109375,-0.2802734375
1969/12/31/18:00:19.495,45,1731182907,774238361,RL_myo,0.5878609354715808,0.7861747325172839,-0.1853736539328409,-0.0445580399641007,7.5625,3.375,19.6875,0.1240234375,0.86962890625,-0.34375
1969/12/31/18:00:19.509,46,1731182907,789160708,RL_myo,0.5787117736926605,0.7930811175602507,-0.1851316116031894,-0.0429104922377323,64.125,3.375,3.5,0.01806640625,0.96240234375,-0.365234375
1969/12/31/18:00:19.532,47,1731182907,813279689,RL_myo,0.5705696522517206,0.7988463423909413,-0.1856731795196549,-0.0426645471677313,65.5,-5.0,6.8125,-0.00341796875,1.138671875,-0.28955078125
1969/12/31/18:00:19.553,48,1731182907,834300980,RL_myo,0.5665507592397889,0.8009960798862045,-0.1884840276376285,-0.0435808276338299,31.25,-13.8125,18.25,0.0,1.11328125,-0.33056640625
1969/12/31/18:00:19.575,49,1731182907,856766806,RL_myo,0.5635187877707285,0.8018178938644162,-0.1939842620813881,-0.0436434069818101,16.875,-20.375,25.375,0.11767578125,0.92431640625,-0.376953125
1969/12/31/18:00:19.590,50,1731182907,871949112,RL_myo,0.5654429729682457,0.7996403701270497,-0.1973312965896306,-0.0437021986879602,-3.875,-13.875,11.0625,0.28076171875,1.05908203125,-0.23388671875
1969/12/31/18:00:19.611,51,1731182907,894297523,RL_myo,0.5632527797565873,0.8005660445695056,-0.1999583990553294,-0.0430923778183951,5.625,-6.0,14.0,0.1259765625,0.8994140625,-0.49072265625
1969/12/31/18:00:19.625,52,1731182907,909432395,RL_myo,0.5599466727868747,0.8017723450761266,-0.2043494070733002,-0.0431526376346545,14.1875,-13.9375,25.0,0.052734375,0.94287109375,-0.4736328125
1969/12/31/18:00:19.647,53,1731182907,931711100,RL_myo,0.5535437476339319,0.8053820432274486,-0.207342387331841,-0.0442517606168927,33.8125,-19.1875,7.3125,0.115234375,0.916015625,-0.48388671875
1969/12/31/18:00:19.678,54,1731182907,963066750,RL_myo,0.5467777071696895,0.8088745451454259,-0.2114353625402773,-0.0452901382808561,32.875,-22.375,12.3125,0.11572265625,0.89453125,-0.5400390625
1969/12/31/18:00:19.683,55,1731182907,969149597,RL_myo,0.542487325784301,0.8104350485783022,-0.2166165075617106,-0.0444951913250174,24.4375,-17.8125,21.1875,0.1953125,0.873046875,-0.43701171875
1969/12/31/18:00:19.705,56,1731182907,991774271,RL_myo,0.5362835831491894,0.813825291842493,-0.219616245409832,-0.0430931265312232,33.1875,-8.375,11.9375,0.15966796875,0.822265625,-0.5244140625
1969/12/31/18:00:19.727,57,1731182908,14344526,RL_myo,0.5286335871453604,0.8182498405808453,-0.2218661920417255,-0.0422980113025903,46.125,-9.3125,8.5,0.1171875,0.89990234375,-0.5205078125
1969/12/31/18:00:19.741,58,1731182908,29336834,RL_myo,0.5198439222959161,0.8233761314749218,-0.2236970735252474,-0.0421148651384504,50.5625,-10.875,5.6875,0.0859375,0.908203125,-0.58544921875
1969/12/31/18:00:19.764,59,1731182908,51876827,RL_myo,0.5126403703869198,0.8271582687800377,-0.2260158699300826,-0.0438847989413257,35.4375,-17.375,7.5625,0.03369140625,0.9609375,-0.65087890625
1969/12/31/18:00:19.785,60,1731182908,74340098,RL_myo,0.5084295518003055,0.8285021291881568,-0.2300445355024431,-0.0465094019774108,18.8125,-26.875,12.6875,0.09912109375,0.89208984375,-0.54052734375
1969/12/31/18:00:19.801,61,1731182908,90788258,RL_myo,0.5094797470921129,0.8265693944077384,-0.2345059528366955,-0.0471209254528706,-10.8125,-17.9375,16.5,0.25048828125,0.86279296875,-0.48388671875
1969/12/31/18:00:19.821,62,1731182908,111653810,RL_myo,0.5122409285481372,0.8242732958906154,-0.2365268825219294,-0.0473053765043858,-16.3125,-6.8125,8.0625,0.24658203125,0.8720703125,-0.42041015625
1969/12/31/18:00:19.843,63,1731182908,134255114,RL_myo,0.5143608876678822,0.8225989893319151,-0.237740080392358,-0.0473649043349088,-10.6875,-2.5,8.25,0.17431640625,0.904296875,-0.41748046875
1969/12/31/18:00:19.858,64,1731182908,149302952,RL_myo,0.5153232000724061,0.8217827272029936,-0.2383438465335479,-0.0480349826432528,-6.625,-1.8125,6.625,0.11474609375,0.97265625,-0.5048828125
1969/12/31/18:00:19.879,65,1731182908,171626261,RL_myo,0.5180919683698775,0.8198646700217005,-0.2386592361364539,-0.0494409159259661,-18.0,-1.8125,5.6875,0.10693359375,0.98583984375,-0.47412109375
1969/12/31/18:00:19.901,66,1731182908,194430923,RL_myo,0.5216399025224113,0.8173742025131769,-0.2389679637696279,-0.0518221714534902,-27.75,-4.875,5.0,0.0830078125,0.984375,-0.5126953125
