time,.header.seq,.header.stamp.secs,.header.stamp.nsecs,.header.frame_id,.orientation.x,.orientation.y,.orientation.z,.orientation.w,.angular_velocity.x,.angular_velocity.y,.angular_velocity.z,.linear_acceleration.x,.linear_acceleration.y,.linear_acceleration.z
1969/12/31/18:00:08.180,1,1731183062,426409795,RU_myo,-0.3216415033271455,-0.7743809097181825,0.1093092850965688,-0.5337906239277447,1.75,0.25,2.0625,0.9150390625,0.3271484375,-0.2451171875
1969/12/31/18:00:08.198,2,1731183062,442784513,RU_myo,-0.3208522000249789,-0.7743298196151621,0.1101651552301858,-0.5341636778806572,-0.0625,-0.0625,3.6875,0.90673828125,0.333984375,-0.23046875
1969/12/31/18:00:08.223,3,1731183062,465764150,RU_myo,-0.3205452226145934,-0.774142346466775,0.1112020936031586,-0.5344047923102399,-2.4375,-0.5,4.4375,0.908203125,0.349609375,-0.22509765625
1969/12/31/18:00:08.245,4,1731183062,486337993,RU_myo,-0.3205480125230039,-0.773843916751555,0.1123626982206493,-0.5345925441144309,-4.3125,-0.5,4.6875,0.916015625,0.3681640625,-0.22509765625
1969/12/31/18:00:08.271,5,1731183062,510278148,RU_myo,-0.3209636570011762,-0.7734497861144525,0.1133961731713606,-0.5346953030970345,-5.375,-0.3125,4.0625,0.92041015625,0.39013671875,-0.22265625
1969/12/31/18:00:08.289,6,1731183062,525983710,RU_myo,-0.3218371446031891,-0.7730072892849211,0.1140742695360061,-0.5346659182104943,-6.0625,-0.5,1.875,0.91748046875,0.40673828125,-0.208984375
1969/12/31/18:00:08.310,7,1731183062,546130726,RU_myo,-0.3230505171416225,-0.7724404581417673,0.1142547833155332,-0.5347148272582193,-5.875,0.375,-1.0625,0.9248046875,0.4091796875,-0.197265625
1969/12/31/18:00:08.329,8,1731183062,562745879,RU_myo,-0.3241450202842407,-0.7718203589746767,0.1139481741424736,-0.5350132268521284,-3.625,2.75,-2.5625,0.90478515625,0.39794921875,-0.19091796875
1969/12/31/18:00:08.354,9,1731183062,585609799,RU_myo,-0.3246334734753399,-0.7713325508143157,0.1132768803854541,-0.5355628369517028,0.125,3.625,-3.25,0.90380859375,0.3798828125,-0.185546875
1969/12/31/18:00:08.376,10,1731183062,606206476,RU_myo,-0.3248211479810381,-0.7708551482526327,0.1124850386563422,-0.5363027860408459,1.4375,4.0625,-4.0625,0.91796875,0.36083984375,-0.18408203125
1969/12/31/18:00:08.394,11,1731183062,622752310,RU_myo,-0.3254867372396833,-0.7697428708169674,0.1118116824719857,-0.5376359775631673,-1.4375,7.0625,-5.25,0.95703125,0.35302734375,-0.16455078125
1969/12/31/18:00:08.427,12,1731183062,652719071,RU_myo,-0.3265881241099767,-0.7683457100393379,0.1108361116396407,-0.5391664153219089,-3.1875,11.75,-7.0,0.98486328125,0.37060546875,-0.1962890625
1969/12/31/18:00:08.441,13,1731183062,666206680,RU_myo,-0.3275684180828479,-0.7675000665906117,0.1080908642490634,-0.540332253640293,2.6875,15.3125,-11.8125,0.96630859375,0.41943359375,-0.24365234375
1969/12/31/18:00:08.467,14,1731183062,690106040,RU_myo,-0.328302262536801,-0.7684799753859197,0.1027203398121279,-0.539541178811177,13.0625,10.75,-22.6875,0.9111328125,0.4892578125,-0.310546875
1969/12/31/18:00:08.484,15,1731183062,705246565,RU_myo,-0.3292734131344827,-0.7718852374257281,0.0938688617981157,-0.5356872561781937,27.25,-4.0,-39.0,0.87060546875,0.59423828125,-0.3076171875
1969/12/31/18:00:08.509,16,1731183062,727635633,RU_myo,-0.3309745380651072,-0.7745524363976168,0.0838574617926345,-0.5324399539148065,26.25,-0.9375,-53.0,1.01806640625,0.552734375,-0.28173828125
1969/12/31/18:00:08.524,17,1731183062,741907164,RU_myo,-0.3323226007243636,-0.7750532059869042,0.0736053363587846,-0.5323875199483239,28.6875,13.3125,-50.625,1.1142578125,0.5478515625,-0.189453125
1969/12/31/18:00:08.549,18,1731183062,765239346,RU_myo,-0.3340322456340975,-0.7745666415754305,0.0621313404084617,-0.533487275550456,33.625,18.9375,-47.1875,1.03466796875,0.64990234375,-0.08447265625
1969/12/31/18:00:08.574,19,1731183062,787975301,RU_myo,-0.3400701309789598,-0.7711389276595759,0.0511447899785298,-0.5357996553956009,9.375,31.3125,-54.1875,1.0234375,0.68017578125,-0.0224609375
1969/12/31/18:00:08.597,20,1731183062,808792375,RU_myo,-0.3511827240014878,-0.7635203123494286,0.0419295327405321,-0.5403233673244997,-24.3125,48.375,-59.5,1.0234375,0.65966796875,0.05859375
1969/12/31/18:00:08.614,21,1731183062,825107917,RU_myo,-0.3662509104763662,-0.7524591693489616,0.0310040764075977,-0.5465383941536176,-41.625,69.375,-73.1875,0.99169921875,0.70849609375,0.13232421875
1969/12/31/18:00:08.641,22,1731183062,848961269,RU_myo,-0.3848067706228706,-0.7387313483932159,0.0176382484869166,-0.5530719992679546,-55.875,88.625,-92.8125,0.96435546875,0.75439453125,0.12744140625
1969/12/31/18:00:08.663,23,1731183062,870109145,RU_myo,-0.4038624810663313,-0.7247186187368321,0.0017089541287376,-0.5582786934129866,-59.5625,101.9375,-115.0625,1.04345703125,0.7509765625,0.06494140625
1969/12/31/18:00:08.680,24,1731183062,885293296,RU_myo,-0.4233134248846528,-0.7087570362147452,-0.0156850562565391,-0.5641127431096952,-60.375,113.6875,-123.5,0.9736328125,0.576171875,0.146484375
1969/12/31/18:00:08.706,25,1731183062,909253724,RU_myo,-0.4340585717238068,-0.6937491260945603,-0.0362529234538725,-0.5735773983493162,-11.9375,132.5,-103.375,0.9912109375,0.32666015625,0.27490234375
1969/12/31/18:00:08.728,26,1731183062,928764877,RU_myo,-0.4512767434072891,-0.6687367159201606,-0.0545633498250089,-0.5883564790974124,-70.5,180.0625,-102.625,0.93310546875,0.48291015625,0.359375
1969/12/31/18:00:08.746,27,1731183062,945299009,RU_myo,-0.4712181636019721,-0.636977590145549,-0.0702463549159266,-0.606035016781192,-109.5,208.125,-95.0,0.87548828125,0.5927734375,0.3154296875
1969/12/31/18:00:08.770,28,1731183062,967706780,RU_myo,-0.4909479611513794,-0.6002577322133039,-0.0841032186059921,-0.6257694487425526,-128.8125,228.1875,-84.8125,0.87744140625,0.57080078125,0.42236328125
1969/12/31/18:00:08.801,29,1731183062,996233972,RU_myo,-0.5084593399622916,-0.5614352980810372,-0.0956374727788874,-0.6458428442541075,-136.0,233.0,-70.0625,0.900390625,0.5029296875,0.43359375
1969/12/31/18:00:08.812,30,1731183063,5414133,RU_myo,-0.5221866505070542,-0.5213932392802435,-0.1058898829628025,-0.6665264621537562,-132.9375,239.5625,-51.125,0.84814453125,0.447265625,0.419921875
1969/12/31/18:00:08.836,31,1731183063,27681569,RU_myo,-0.5314802328718865,-0.4822261506569563,-0.1148651582757109,-0.6868716744074657,-121.125,233.9375,-31.25,0.8291015625,0.42578125,0.529296875
1969/12/31/18:00:08.859,32,1731183063,48688723,RU_myo,-0.5360870204179493,-0.4491193514635347,-0.1234025450005798,-0.7040414239004399,-89.375,202.9375,-15.5,0.783203125,0.537109375,0.646484375
1969/12/31/18:00:08.885,33,1731183063,72891173,RU_myo,-0.5354847429071435,-0.4183054966817372,-0.1337186085832632,-0.7213847345751581,-62.5,204.5625,2.375,0.77880859375,0.466796875,0.5791015625
1969/12/31/18:00:08.901,34,1731183063,87813466,RU_myo,-0.5300581259637216,-0.3893806383015018,-0.146719601015174,-0.7388467096046992,-34.5,210.1875,17.3125,0.70068359375,0.33056640625,0.4462890625
1969/12/31/18:00:08.907,35,1731183063,93248601,RU_myo,-0.5176852224396796,-0.3649796781642636,-0.1652784228208739,-0.7559595808934062,18.9375,213.4375,37.0625,0.68310546875,0.314453125,0.48779296875
1969/12/31/18:00:08.932,36,1731183063,115716940,RU_myo,-0.4975231298588172,-0.348302809384724,-0.1893785907693707,-0.771551448439054,84.25,199.4375,62.75,0.658203125,0.419921875,0.654296875
1969/12/31/18:00:08.948,37,1731183063,130723727,RU_myo,-0.4728721241810966,-0.3343306009633515,-0.2184927987310694,-0.7854144767793667,120.875,204.0625,71.5625,0.58984375,0.53662109375,0.3671875
1969/12/31/18:00:08.972,38,1731183063,153012270,RU_myo,-0.4504060491862667,-0.3170541226995468,-0.2476012657925046,-0.7970600274217673,108.125,212.1875,52.4375,0.5048828125,0.57568359375,0.18115234375
1969/12/31/18:00:08.997,39,1731183063,175455108,RU_myo,-0.4304398040298022,-0.3017289651387129,-0.2753032689605044,-0.8049157203103732,111.75,186.125,37.75,0.35205078125,0.59716796875,0.55078125
1969/12/31/18:00:09.013,40,1731183063,190735600,RU_myo,-0.4076923604634121,-0.2955159295454852,-0.3057692703475591,-0.8080609060682,158.3125,146.1875,49.8125,0.23974609375,0.6396484375,0.4365234375
1969/12/31/18:00:09.037,41,1731183063,213067111,RU_myo,-0.3878004769378788,-0.2891719640748614,-0.3279886312659995,-0.8114270287833015,110.0625,123.6875,50.6875,0.2138671875,0.6162109375,0.083984375
1969/12/31/18:00:09.062,42,1731183063,235512051,RU_myo,-0.3732021966268127,-0.2796422673661579,-0.3392691759686757,-0.8169557815284569,41.25,107.875,42.4375,0.25244140625,0.63720703125,0.212890625
1969/12/31/18:00:09.079,43,1731183063,250550766,RU_myo,-0.3547087768261109,-0.2759795404004944,-0.3525727122719275,-0.8207980625489273,65.875,97.75,57.4375,0.3291015625,0.60546875,0.27294921875
1969/12/31/18:00:09.103,44,1731183063,273000653,RU_myo,-0.3368886131564069,-0.2732947843685489,-0.3656340002572524,-0.8234851553114851,62.4375,90.125,54.25,0.34619140625,0.6884765625,0.2216796875
1969/12/31/18:00:09.128,45,1731183063,295580553,RU_myo,-0.322190576589581,-0.270312950126019,-0.3741902680565868,-0.8265021383171257,42.1875,71.0,52.125,0.255859375,0.73486328125,0.37353515625
1969/12/31/18:00:09.144,46,1731183063,310506588,RU_myo,-0.3075405451709728,-0.2704940853736359,-0.3819996571194917,-0.8284491685157344,48.4375,50.4375,60.25,0.2353515625,0.82763671875,0.44921875
1969/12/31/18:00:09.168,47,1731183063,332987847,RU_myo,-0.2955789398322617,-0.2707388348329368,-0.3890802687240695,-0.8294275846211928,22.8125,42.5625,53.4375,0.2021484375,1.07763671875,0.2470703125
1969/12/31/18:00:09.193,48,1731183063,355638828,RU_myo,-0.2915493524009202,-0.2665262763104079,-0.3886510940106887,-0.8324139873134081,-37.0625,32.375,27.0,0.0888671875,1.07177734375,0.2578125
1969/12/31/18:00:09.211,49,1731183063,372080732,RU_myo,-0.2911209693933549,-0.2631074421498434,-0.3811426528011533,-0.8371101082178733,-54.5625,11.875,15.1875,0.18701171875,0.75830078125,0.48681640625
1969/12/31/18:00:09.234,50,1731183063,392881715,RU_myo,-0.286854998264449,-0.2650051920136676,-0.3750476519861786,-0.8407292768282523,-18.6875,-0.1875,30.3125,0.32763671875,0.53271484375,0.56005859375
1969/12/31/18:00:09.259,51,1731183063,415641832,RU_myo,-0.281110769429876,-0.2692706718898421,-0.3750381411521034,-0.84131827107921,12.6875,-2.25,31.3125,0.361328125,0.79443359375,0.55126953125
1969/12/31/18:00:09.275,52,1731183063,430529259,RU_myo,-0.2770263277040132,-0.2717165038418742,-0.3761430397972755,-0.8413934685453902,8.6875,0.9375,23.5,0.29443359375,0.927734375,0.55419921875
1969/12/31/18:00:09.299,53,1731183063,453046421,RU_myo,-0.2745833703800009,-0.2728744718757466,-0.3743708366105636,-0.8426090267762375,-8.75,0.5625,18.0,0.29736328125,0.85986328125,0.5673828125
1969/12/31/18:00:09.324,54,1731183063,475770107,RU_myo,-0.2728114419450356,-0.2731776317999954,-0.3697907218668838,-0.8451051536046774,-20.1875,1.0625,15.8125,0.32763671875,0.73681640625,0.62548828125
1969/12/31/18:00:09.340,55,1731183063,490774053,RU_myo,-0.2697596231860231,-0.2736656448792144,-0.3656402494360779,-0.8477287706004211,-13.375,3.5,20.5625,0.3388671875,0.68017578125,0.64208984375
1969/12/31/18:00:09.364,56,1731183063,513112269,RU_myo,-0.2653700366172257,-0.2750131980214395,-0.3641208920097444,-0.849330595576199,5.6875,3.3125,24.8125,0.3115234375,0.65234375,0.638671875
1969/12/31/18:00:09.389,57,1731183063,535692766,RU_myo,-0.259878197243805,-0.2778829102985074,-0.3654651585476526,-0.8495172915539039,18.0625,1.5,29.25,0.3125,0.76220703125,0.55224609375
1969/12/31/18:00:09.406,58,1731183063,550593049,RU_myo,-0.2560218906613076,-0.279274415176673,-0.3681954866173227,-0.8490528111752351,15.9375,6.0625,17.75,0.34814453125,1.00146484375,0.63037109375
1969/12/31/18:00:09.430,59,1731183063,573314551,RU_myo,-0.2546336396853969,-0.2771551672606394,-0.3689502281635245,-0.8498367207525088,3.125,12.3125,5.8125,0.24853515625,0.84423828125,0.6669921875
1969/12/31/18:00:09.449,60,1731183063,590846760,RU_myo,-0.2536482521264531,-0.2745821670637421,-0.369791809344124,-0.8506005028600522,-2.9375,14.6875,3.625,0.2041015625,0.7900390625,0.53564453125
1969/12/31/18:00:09.471,61,1731183063,610700549,RU_myo,-0.2535296798367729,-0.2734263277970011,-0.3722382083111405,-0.8499408573439815,6.1875,6.0,-1.0625,0.177734375,0.79150390625,0.48291015625
1969/12/31/18:00:09.495,62,1731183063,633177483,RU_myo,-0.2547407806301545,-0.273355044667576,-0.3741772223391177,-0.848749409732525,6.125,-0.5625,-9.75,0.26025390625,0.79833984375,0.51953125
1969/12/31/18:00:09.515,63,1731183063,651124782,RU_myo,-0.2552406637401619,-0.2740388761820485,-0.3755980498940593,-0.8477505546032638,11.875,-2.4375,-8.0625,0.30615234375,0.69384765625,0.5537109375
1969/12/31/18:00:09.537,64,1731183063,670804044,RU_myo,-0.2539497282725068,-0.2763480820999545,-0.3775984063499158,-0.8464990942416895,21.0625,-5.625,2.1875,0.30615234375,0.646484375,0.52783203125
1969/12/31/18:00:09.561,65,1731183063,693195342,RU_myo,-0.2515078757829078,-0.2798261612386877,-0.3821137612901688,-0.8440557927875795,35.0625,-6.6875,5.8125,0.32373046875,0.7724609375,0.5224609375
1969/12/31/18:00:09.580,66,1731183063,710930707,RU_myo,-0.2498627444286726,-0.2818432227092355,-0.3865121544862686,-0.8418677813016879,31.1875,-2.25,0.5,0.32861328125,0.85400390625,0.57568359375
1969/12/31/18:00:09.602,67,1731183063,730631908,RU_myo,-0.2488303441809487,-0.2819711037812075,-0.3881069802910603,-0.8413968910666075,15.625,3.375,-0.875,0.3251953125,0.7734375,0.61669921875
1969/12/31/18:00:09.626,68,1731183063,753220557,RU_myo,-0.2477904529486733,-0.2823956713777122,-0.3891408689656998,-0.8410838010063221,11.0,1.8125,1.875,0.30615234375,0.7578125,0.56787109375
1969/12/31/18:00:09.646,69,1731183063,771065442,RU_myo,-0.2469394322605536,-0.2830099227365761,-0.390000734588467,-0.8407292830917267,4.625,0.0,3.625,0.28662109375,0.81494140625,0.501953125
1969/12/31/18:00:09.667,70,1731183063,790459327,RU_myo,-0.2469922428701005,-0.2831225635469227,-0.3896825971647126,-0.8408233580482765,-2.75,0.0625,-0.1875,0.3095703125,0.82373046875,0.54248046875
1969/12/31/18:00:09.693,71,1731183063,813186522,RU_myo,-0.2469395375840684,-0.2828879774350363,-0.3889023068427296,-0.8412789387194263,-1.0,1.0625,-0.9375,0.310546875,0.7451171875,0.57568359375
1969/12/31/18:00:09.711,72,1731183063,830916105,RU_myo,-0.2462651624484259,-0.2828845174593442,-0.3889585824743043,-0.8414517458925521,4.6875,2.4375,0.4375,0.31689453125,0.73681640625,0.56201171875
1969/12/31/18:00:09.736,73,1731183063,853413081,RU_myo,-0.2449179483060047,-0.2828182836905122,-0.3904161762555475,-0.8411921459012366,13.125,5.3125,1.75,0.3076171875,0.7685546875,0.5791015625
1969/12/31/18:00:09.757,74,1731183063,873101812,RU_myo,-0.243208204119351,-0.2820848982282661,-0.3926729197751329,-0.8408839739915732,18.8125,7.8125,2.625,0.267578125,0.7607421875,0.60302734375
1969/12/31/18:00:09.776,75,1731183063,891055078,RU_myo,-0.2413796996553101,-0.2815384461466361,-0.3967659740731154,-0.8396717845405203,27.375,8.5,0.4375,0.2412109375,0.7548828125,0.54638671875
1969/12/31/18:00:09.799,76,1731183063,912059158,RU_myo,-0.2393709398570946,-0.2813615585775641,-0.4017794230186778,-0.8379203552519258,29.9375,8.5,1.0625,0.2431640625,0.81591796875,0.50390625
1969/12/31/18:00:09.823,77,1731183063,933203865,RU_myo,-0.2376012112589401,-0.2809956271862729,-0.4061131414633926,-0.836456357642891,24.6875,9.4375,-0.25,0.26611328125,0.8408203125,0.4970703125
1969/12/31/18:00:09.842,78,1731183063,951073095,RU_myo,-0.2365571223729886,-0.2798893093917766,-0.409031432957629,-0.8357008969693844,15.125,10.5625,-3.3125,0.2646484375,0.8037109375,0.4873046875
1969/12/31/18:00:09.864,79,1731183063,970752350,RU_myo,-0.2360684802060141,-0.2790954394989923,-0.4114719993663254,-0.8349061037275782,10.0,6.75,-2.8125,0.24658203125,0.82568359375,0.45849609375
1969/12/31/18:00:09.888,80,1731183063,993112242,RU_myo,-0.2363133111754028,-0.2785469917883622,-0.4134262318962238,-0.8340541607755825,6.375,3.125,-4.25,0.24658203125,0.880859375,0.4697265625
1969/12/31/18:00:09.907,81,1731183064,10981269,RU_myo,-0.2375368659896036,-0.2775739122612326,-0.4153233229854195,-0.8330879292800848,3.25,2.5625,-9.125,0.2275390625,0.8935546875,0.46044921875
1969/12/31/18:00:09.929,82,1731183064,30711582,RU_myo,-0.2399188335294949,-0.2760500849793705,-0.4163028144250025,-0.8324225312919821,-2.9375,0.6875,-14.5625,0.2158203125,0.849609375,0.4619140625
1969/12/31/18:00:09.953,83,1731183064,53077257,RU_myo,-0.2425984705589587,-0.27543318179436,-0.4175134936085124,-0.8312430613869228,0.5,-2.375,-18.375,0.2783203125,0.87255859375,0.47412109375
1969/12/31/18:00:09.973,84,1731183064,71087451,RU_myo,-0.2455955485301042,-0.2745860767487423,-0.4202711101337719,-0.8292511724350216,5.0,-0.4375,-23.3125,0.3076171875,1.03564453125,0.50146484375
1969/12/31/18:00:09.996,85,1731183064,92006098,RU_myo,-0.2511523651283783,-0.2714154478070227,-0.4213134329237413,-0.8281009210356834,-11.5,1.5,-34.3125,0.259765625,1.08203125,0.54150390625
1969/12/31/18:00:10.018,86,1731183064,113134390,RU_myo,-0.2587136717044464,-0.2666478017637949,-0.4186169082851611,-0.8286893688141009,-31.4375,0.25,-41.4375,0.21875,0.86962890625,0.55859375
1969/12/31/18:00:10.038,87,1731183064,131076081,RU_myo,-0.2663453469075361,-0.2631716626639082,-0.4174615428156615,-0.827965393251062,-22.0,-4.125,-44.125,0.212890625,0.83935546875,0.48974609375
1969/12/31/18:00:10.061,88,1731183064,151879758,RU_myo,-0.2746423697367354,-0.2603609665104252,-0.420141794059486,-0.8247815521382762,-3.3125,-6.8125,-53.0,0.21240234375,1.02490234375,0.51513671875
1969/12/31/18:00:10.084,89,1731183064,173107926,RU_myo,-0.2855625893961142,-0.2560237363788628,-0.423308852329867,-0.8208017236136652,-6.375,-7.25,-69.5625,0.16552734375,1.06982421875,0.515625
1969/12/31/18:00:10.104,90,1731183064,191024754,RU_myo,-0.2989939675713761,-0.250473819741361,-0.4244139723395284,-0.8171525274164432,-22.5,-9.8125,-81.75,0.14453125,0.99072265625,0.47509765625
1969/12/31/18:00:10.126,91,1731183064,212056857,RU_myo,-0.3132830930333968,-0.2453532113762429,-0.4249127008958715,-0.8130834532224649,-21.9375,-14.1875,-88.25,0.15966796875,0.9111328125,0.47705078125
1969/12/31/18:00:10.149,92,1731183064,232968155,RU_myo,-0.3271212426523447,-0.2408857359605979,-0.4266613073474892,-0.808038293417359,-5.1875,-15.0,-90.5,0.16845703125,0.84716796875,0.54931640625
1969/12/31/18:00:10.178,93,1731183064,258646382,RU_myo,-0.3399377543501131,-0.2371020064003931,-0.4310557197441381,-0.8015085328330406,17.375,-13.625,-89.875,0.12939453125,0.796875,0.5810546875
1969/12/31/18:00:10.192,94,1731183064,271998503,RU_myo,-0.351777078935144,-0.2344773659383801,-0.4374022076211272,-0.7936955085967293,30.6875,-15.1875,-85.8125,0.078125,0.7822265625,0.51806640625
1969/12/31/18:00:10.215,95,1731183064,293202889,RU_myo,-0.3638823506104365,-0.2326601007257605,-0.4436532718194,-0.7852583567517405,30.5625,-21.3125,-84.3125,0.02734375,0.83740234375,0.498046875
1969/12/31/18:00:10.234,96,1731183064,311094272,RU_myo,-0.3788846299455381,-0.2315541697830817,-0.4458974076002096,-0.7771773321080029,16.0,-40.9375,-87.3125,-0.0224609375,0.87548828125,0.6279296875
1969/12/31/18:00:10.257,97,1731183064,332072078,RU_myo,-0.3949927103419353,-0.2304531017075321,-0.443939582049944,-0.7705775588345606,-16.9375,-48.75,-87.25,0.01904296875,0.91650390625,0.5
1969/12/31/18:00:10.280,98,1731183064,353143910,RU_myo,-0.4082980998413209,-0.2277070568771253,-0.4394239639547848,-0.7670389415255189,-43.25,-32.4375,-74.9375,0.107421875,0.7509765625,0.30712890625
1969/12/31/18:00:10.300,99,1731183064,371009953,RU_myo,-0.4200234066603686,-0.2241101350271539,-0.4348542244195185,-0.764366920228779,-36.875,-26.1875,-64.25,0.03564453125,0.68212890625,0.419921875
1969/12/31/18:00:10.323,100,1731183064,392099906,RU_myo,-0.4307072775385512,-0.2219146466104821,-0.4315007017426041,-0.7609548443177917,-15.1875,-29.5625,-55.6875,-0.03271484375,0.6162109375,0.55517578125
1969/12/31/18:00:10.346,101,1731183064,413131840,RU_myo,-0.4391783173749493,-0.2223355489434325,-0.4317935791311515,-0.7558065984396014,19.75,-28.5,-47.8125,-0.046875,0.50634765625,0.5703125
1969/12/31/18:00:10.365,102,1731183064,431052312,RU_myo,-0.4441995114438574,-0.2274706758932751,-0.438645491721215,-0.7473513352061052,64.5625,-26.75,-40.5625,-0.0068359375,0.58154296875,0.474609375
1969/12/31/18:00:10.388,103,1731183064,452096049,RU_myo,-0.44706376870939,-0.2348534309889055,-0.4493830073730019,-0.7369075690644608,85.0,-25.4375,-33.9375,-0.05322265625,0.7509765625,0.37939453125
1969/12/31/18:00:10.411,104,1731183064,473134264,RU_myo,-0.4493928873029489,-0.2426099045265818,-0.4577545368426072,-0.7277686796414997,74.3125,-31.375,-21.8125,-0.1005859375,0.8291015625,0.41259765625
1969/12/31/18:00:10.431,105,1731183064,491113594,RU_myo,-0.4525448746891957,-0.2498609193496382,-0.461699524885201,-0.7208371564334579,53.625,-37.1875,-18.3125,-0.041015625,0.884765625,0.52294921875
1969/12/31/18:00:10.453,106,1731183064,512107755,RU_myo,-0.456280085082499,-0.2548113102219681,-0.4625054152963052,-0.716218137833484,24.9375,-32.875,-19.25,0.00537109375,0.8505859375,0.4462890625
1969/12/31/18:00:10.477,107,1731183064,533769784,RU_myo,-0.4605605882293782,-0.2576844425529333,-0.4609878243965669,-0.7134233654668967,-1.8125,-32.25,-13.6875,-0.07666015625,0.810546875,0.3359375
1969/12/31/18:00:10.495,108,1731183064,550313230,RU_myo,-0.4645721150979465,-0.2612760410843811,-0.4586520553022948,-0.7110174909210558,0.8125,-36.0,-8.0625,-0.0751953125,0.771484375,0.3916015625
1969/12/31/18:00:10.520,109,1731183064,572818582,RU_myo,-0.4675525293363434,-0.266457948450917,-0.4566281196311867,-0.7084388148461395,16.9375,-34.8125,-7.875,0.04541015625,0.771484375,0.51953125
1969/12/31/18:00:10.543,110,1731183064,593952878,RU_myo,-0.4688502443927957,-0.2716548343910874,-0.4557893289671177,-0.7061438853976368,17.9375,-27.375,-1.9375,0.04736328125,0.796875,0.44189453125
1969/12/31/18:00:10.560,111,1731183064,610277218,RU_myo,-0.469582887552523,-0.2767206670344605,-0.4546299622275466,-0.7044353636770497,8.75,-28.4375,7.3125,-0.03662109375,0.9130859375,0.3857421875
1969/12/31/18:00:10.585,112,1731183064,633136510,RU_myo,-0.4703869280817887,-0.2816706465677248,-0.4528092149265331,-0.7031085262102252,10.4375,-29.3125,9.25,-0.03466796875,0.892578125,0.46337890625
1969/12/31/18:00:10.608,113,1731183064,653779325,RU_myo,-0.4713009671314562,-0.2862472851394107,-0.4509767995511952,-0.7018246336499112,12.6875,-25.9375,4.25,0.03125,0.8564453125,0.50146484375
1969/12/31/18:00:10.626,114,1731183064,670247231,RU_myo,-0.4711071405877447,-0.2906350827152274,-0.4502951785537479,-0.7005880122822544,18.25,-18.25,4.5625,0.068359375,0.85400390625,0.49072265625
1969/12/31/18:00:10.651,115,1731183064,692786287,RU_myo,-0.4697068768498167,-0.2963132649565826,-0.4504205757733429,-0.6990673814238306,26.375,-20.0,13.0,0.03662109375,0.83837890625,0.4521484375
1969/12/31/18:00:10.674,116,1731183064,713880915,RU_myo,-0.4678063338931579,-0.3024720405446171,-0.4505954550728225,-0.6975898755901885,26.5625,-21.125,17.8125,0.02490234375,0.88330078125,0.4375
1969/12/31/18:00:10.709,117,1731183064,745872213,RU_myo,-0.4659739027308976,-0.3074756413828765,-0.4507160801136449,-0.6965501181228205,25.6875,-16.25,15.75,0.0302734375,0.85400390625,0.46728515625
1969/12/31/18:00:10.716,118,1731183064,752855535,RU_myo,-0.463830138442862,-0.3121088589469469,-0.4508917187915611,-0.6958062379456671,21.6875,-13.25,16.1875,0.04248046875,0.86865234375,0.4248046875
1969/12/31/18:00:10.739,119,1731183064,773791669,RU_myo,-0.4620784139552726,-0.315966180035193,-0.4500549761598441,-0.6957725424765695,10.0,-12.0625,16.4375,0.05517578125,0.908203125,0.3857421875
1969/12/31/18:00:10.756,120,1731183064,790225173,RU_myo,-0.4612625147938862,-0.3186360928471659,-0.4480190686824449,-0.6964099704039476,-2.9375,-12.375,14.625,0.04443359375,0.97607421875,0.39697265625
1969/12/31/18:00:10.782,121,1731183064,812656959,RU_myo,-0.4619692377922001,-0.3195149900703088,-0.4445744389058509,-0.6977450556798034,-17.5,-12.0,8.9375,0.04150390625,0.9970703125,0.4150390625
1969/12/31/18:00:10.804,122,1731183064,833584343,RU_myo,-0.4634080002355024,-0.3190698044555783,-0.4393007751475235,-0.7003301465431833,-26.4375,-10.625,8.125,0.0576171875,0.87255859375,0.47314453125
1969/12/31/18:00:10.822,123,1731183064,850069922,RU_myo,-0.4640130452223056,-0.3200426685710602,-0.4350236730691298,-0.7021531086784988,-17.125,-12.1875,9.3125,0.0966796875,0.8583984375,0.4453125
1969/12/31/18:00:10.847,124,1731183064,872617552,RU_myo,-0.4639129913224673,-0.321217481032778,-0.4319316194696883,-0.7035901807611371,-11.1875,-9.3125,10.5,0.0888671875,0.9267578125,0.453125
1969/12/31/18:00:10.870,125,1731183064,893856874,RU_myo,-0.4634140520303985,-0.3216983363956579,-0.4295414326603378,-0.7051608003633906,-6.375,-3.625,9.6875,0.08642578125,0.92333984375,0.5087890625
1969/12/31/18:00:10.887,126,1731183064,910171328,RU_myo,-0.4621402471172114,-0.3228634320192879,-0.4288163465723095,-0.7059051899310178,7.25,-1.75,9.6875,0.08251953125,0.8720703125,0.51318359375
1969/12/31/18:00:10.920,127,1731183064,940148470,RU_myo,-0.4603601728970757,-0.3245041812665719,-0.4294172314071092,-0.7059506986478159,10.75,-0.5625,10.625,0.05810546875,0.89404296875,0.4287109375
1969/12/31/18:00:10.928,128,1731183064,947049852,RU_myo,-0.459146350868284,-0.3256075743562801,-0.4293625652476908,-0.7062663262325911,0.75,-1.125,8.875,0.06201171875,0.94091796875,0.38232421875
1969/12/31/18:00:10.953,129,1731183064,970259582,RU_myo,-0.4587785674843059,-0.326094703481262,-0.4283845636786408,-0.7068742009582587,-3.8125,-2.0,5.125,0.0830078125,0.9189453125,0.41943359375
1969/12/31/18:00:10.978,130,1731183064,992818155,RU_myo,-0.458108119241623,-0.326278444639717,-0.4270427005507108,-0.7080352106744029,-1.9375,-0.125,6.75,0.09716796875,0.87939453125,0.48388671875
1969/12/31/18:00:11.002,131,1731183065,15186765,RU_myo,-0.4572993933074067,-0.3272440073287488,-0.4269063467483397,-0.708194602954644,2.75,-1.8125,6.25,0.078125,0.9375,0.43701171875
1969/12/31/18:00:11.018,132,1731183065,30236792,RU_myo,-0.4577397943915165,-0.3274975648939837,-0.4256980087841104,-0.708520169745482,-10.125,-5.0625,3.1875,0.05615234375,0.951171875,0.3798828125
1969/12/31/18:00:11.043,133,1731183065,52892028,RU_myo,-0.4590778662228245,-0.3274332294981991,-0.4228862716110012,-0.7093674606631069,-17.5625,-8.8125,2.125,0.0712890625,0.84765625,0.37744140625
1969/12/31/18:00:11.066,134,1731183065,73721213,RU_myo,-0.4591900685671098,-0.3285857694265443,-0.4205580492418865,-0.7101456190652433,-4.1875,-8.9375,6.5,0.1025390625,0.78662109375,0.44384765625
1969/12/31/18:00:11.085,135,1731183065,90787356,RU_myo,-0.4581688093152541,-0.3307945845862098,-0.4202067739623717,-0.7099877126367858,6.125,-7.4375,9.5625,0.08740234375,0.888671875,0.41455078125
1969/12/31/18:00:11.109,136,1731183065,112908555,RU_myo,-0.4578632721947815,-0.3326252777208157,-0.4200233323439732,-0.7094378400416077,1.75,-9.5625,7.9375,0.0380859375,0.95458984375,0.38427734375
1969/12/31/18:00:11.131,137,1731183065,133693129,RU_myo,-0.4581552676708154,-0.333958388796417,-0.418058290068614,-0.7097836370070046,-4.0625,-10.875,6.3125,0.0859375,0.81982421875,0.41845703125
1969/12/31/18:00:11.149,138,1731183065,150266415,RU_myo,-0.4567690268592206,-0.3373279544963806,-0.4200273173229765,-0.7079187523436797,20.25,-5.25,-1.4375,0.224609375,1.1884765625,0.498046875
1969/12/31/18:00:11.174,139,1731183065,172768517,RU_myo,-0.4579182303595333,-0.3347569630177316,-0.420139823776493,-0.7083298655941281,-2.75,7.8125,-9.6875,0.09814453125,1.052734375,0.5966796875
1969/12/31/18:00:11.197,140,1731183065,193782671,RU_myo,-0.4596239461132209,-0.3309707422350281,-0.4178787888776024,-0.7103390132534562,-26.1875,7.8125,-4.1875,0.041015625,0.82666015625,0.41943359375
1969/12/31/18:00:11.214,141,1731183065,210296225,RU_myo,-0.4606250220006557,-0.3303780633482906,-0.4175959189782015,-0.710132785342206,-7.75,0.4375,-7.75,0.11474609375,0.830078125,0.33935546875
1969/12/31/18:00:11.239,142,1731183065,232759630,RU_myo,-0.459687588207074,-0.33060643458812,-0.4189186942981089,-0.7098547979867869,14.375,5.875,-3.75,0.15283203125,0.82421875,0.4921875
1969/12/31/18:00:11.262,143,1731183065,253710489,RU_myo,-0.4573092684922883,-0.3312791551282719,-0.420568286291253,-0.7101018736030662,15.375,9.25,5.1875,0.13525390625,0.83642578125,0.443359375
1969/12/31/18:00:11.280,144,1731183065,269608739,RU_myo,-0.4545131188887242,-0.3320197887410581,-0.4230810984472453,-0.7100584967304172,14.25,10.875,7.75,0.09521484375,0.87255859375,0.35546875
1969/12/31/18:00:11.305,145,1731183065,292762419,RU_myo,-0.4515068994767576,-0.3328627507091424,-0.426484213779884,-0.7095457168581757,19.0625,11.4375,7.3125,0.0703125,0.91796875,0.35986328125
1969/12/31/18:00:11.328,146,1731183065,313589448,RU_myo,-0.4493741089630351,-0.3326210639479208,-0.429111688186758,-0.7094288527212168,11.75,12.75,3.6875,0.07470703125,0.9423828125,0.384765625
1969/12/31/18:00:11.345,147,1731183065,329580379,RU_myo,-0.448344316751028,-0.3312230611227647,-0.4303397464486113,-0.7099903943322501,-0.5,11.8125,1.5625,0.05322265625,0.87939453125,0.35693359375
1969/12/31/18:00:11.370,148,1731183065,352739197,RU_myo,-0.4482808972966454,-0.3303058156799789,-0.4296050695808151,-0.7109020955359191,-16.6875,3.875,3.25,0.0634765625,0.90673828125,0.2666015625
1969/12/31/18:00:11.393,149,1731183065,373740293,RU_myo,-0.4502278876469874,-0.3293248856910863,-0.4263036187087172,-0.7121131887034092,-34.875,-6.1875,-0.125,0.0703125,0.9228515625,0.2373046875
1969/12/31/18:00:11.411,150,1731183065,389608867,RU_myo,-0.4550482678050967,-0.3282865655208711,-0.4195891686105203,-0.7135151956691772,-56.8125,-21.0625,-5.9375,0.0830078125,0.85595703125,0.1865234375
1969/12/31/18:00:11.436,151,1731183065,412765113,RU_myo,-0.4627986276375893,-0.3284082045783816,-0.4076265375170064,-0.7154062393733117,-89.6875,-43.8125,-5.5,0.103515625,0.7978515625,0.05517578125
1969/12/31/18:00:11.458,152,1731183065,433775644,RU_myo,-0.474035090932077,-0.3295724850049202,-0.388590372597468,-0.7181018256607208,-110.875,-75.125,-1.0625,0.14208984375,0.94287109375,-0.03857421875
1969/12/31/18:00:11.476,153,1731183065,449593651,RU_myo,-0.4896744109747479,-0.3306812861350099,-0.3594282196473004,-0.7222743337249368,-167.1875,-109.5625,4.9375,0.107421875,0.98486328125,-0.1728515625
1969/12/31/18:00:11.501,154,1731183065,472707771,RU_myo,-0.5111988096794,-0.3271281781138472,-0.3168138754830188,-0.7288977297040442,-251.0,-135.25,3.3125,0.10693359375,0.79931640625,-0.1435546875
1969/12/31/18:00:11.524,155,1731183065,493695883,RU_myo,-0.5366506967253694,-0.321514371698993,-0.2671352325221132,-0.7329892946288736,-285.1875,-159.0,-12.625,0.19482421875,0.55126953125,0.05517578125
1969/12/31/18:00:11.541,156,1731183065,509575909,RU_myo,-0.5625904275748933,-0.3185245651457332,-0.2173949992429779,-0.7312821114344079,-263.8125,-180.4375,-29.875,0.3349609375,0.30126953125,0.283203125
1969/12/31/18:00:11.566,157,1731183065,532804525,RU_myo,-0.5843665570100737,-0.3219966532412688,-0.1725330816362901,-0.7246145306924914,-205.0625,-195.0,-31.4375,0.4912109375,0.11279296875,0.43994140625
1969/12/31/18:00:11.590,158,1731183065,555219324,RU_myo,-0.5990222141283041,-0.334146370081759,-0.1356725809482649,-0.7149206537237854,-124.9375,-200.5,-20.125,0.6923828125,0.04833984375,0.5302734375
1969/12/31/18:00:11.613,159,1731183065,576131738,RU_myo,-0.6047421903619458,-0.3558635293168337,-0.1082664896258039,-0.704220419274043,-34.875,-202.0625,1.5625,0.775390625,0.04541015625,0.57763671875
1969/12/31/18:00:11.632,160,1731183065,592801609,RU_myo,-0.6009742677306023,-0.3859003041393925,-0.0867863723685301,-0.6945351037650304,36.3125,-209.375,37.6875,0.71923828125,0.10546875,0.62158203125
1969/12/31/18:00:11.657,161,1731183065,615320192,RU_myo,-0.589802868360123,-0.4209302962623932,-0.0679884515059165,-0.6858045148761074,78.25,-215.5,68.875,0.73291015625,0.31494140625,0.6484375
1969/12/31/18:00:11.679,162,1731183065,636244618,RU_myo,-0.575236524888166,-0.4577478977889915,-0.0509015662341358,-0.6760020954547827,96.5,-219.0625,78.0625,0.7265625,0.5986328125,0.59033203125
1969/12/31/18:00:11.705,163,1731183065,660240901,RU_myo,-0.5617804998814728,-0.4917181409608937,-0.0300267252516767,-0.6646159308755285,69.25,-225.25,78.625,0.794921875,0.68701171875,0.55078125
1969/12/31/18:00:11.722,164,1731183065,675356832,RU_myo,-0.5500344522621959,-0.5214707456866625,-0.0004882684884706,-0.6523267005967988,17.625,-238.875,92.0,0.91796875,0.64501953125,0.4052734375
1969/12/31/18:00:11.744,165,1731183065,696208791,RU_myo,-0.5384952217124358,-0.5494811833930703,0.0350940442575825,-0.6378571418017303,-10.3125,-259.625,102.3125,1.0234375,0.63134765625,0.474609375
1969/12/31/18:00:11.763,166,1731183065,712844083,RU_myo,-0.526764639076921,-0.5754679390402373,0.0698813013258109,-0.6216689391307516,-11.25,-255.6875,93.375,1.17626953125,0.46826171875,0.48388671875
1969/12/31/18:00:11.788,167,1731183065,735338562,RU_myo,-0.5126138608829881,-0.5999516909727078,0.1060138440711692,-0.6050174071833625,-12.5,-258.0,104.0,1.23681640625,0.34765625,0.4287109375
1969/12/31/18:00:11.811,168,1731183065,756487934,RU_myo,-0.4951451876964663,-0.6279488273399412,0.1394560278425275,-0.5840064465755561,14.75,-280.9375,97.1875,1.0712890625,0.5634765625,0.38037109375
1969/12/31/18:00:11.828,169,1731183065,772999169,RU_myo,-0.4788537176342935,-0.6545025832156721,0.1671654770074343,-0.5606970563224898,25.9375,-271.5,68.75,1.1591796875,0.67236328125,0.552734375
1969/12/31/18:00:11.853,170,1731183065,795315953,RU_myo,-0.46501345104641,-0.6737476684737262,0.1925603672465446,-0.5410610635944908,7.5625,-225.875,68.875,1.26953125,0.67724609375,0.48779296875
1969/12/31/18:00:11.876,171,1731183065,816313423,RU_myo,-0.4544369660660159,-0.6865989616227074,0.2167211477975319,-0.5245005756609376,-15.1875,-186.75,71.0,1.26123046875,0.75634765625,0.384765625
1969/12/31/18:00:11.893,172,1731183065,832879895,RU_myo,-0.4485298441962362,-0.6943698513295115,0.2404691231641272,-0.5087691905320214,-44.0,-161.8125,63.75,1.1455078125,0.65283203125,0.35009765625
1969/12/31/18:00:11.926,173,1731183065,862683981,RU_myo,-0.4427853645576136,-0.7016210270095556,0.2615820913154972,-0.4931975921419815,-38.875,-151.6875,52.375,1.08984375,0.52783203125,0.26611328125
1969/12/31/18:00:11.940,174,1731183065,876138043,RU_myo,-0.4400369466718905,-0.7061341848812446,0.2786086909233259,-0.4797074064966795,-42.125,-123.6875,36.375,1.1884765625,0.501953125,0.392578125
1969/12/31/18:00:11.959,175,1731183065,892715177,RU_myo,-0.4421833508522084,-0.7040755190381057,0.2860611960585646,-0.4763617741064854,-24.75,-64.0625,17.8125,1.17919921875,0.423828125,0.423828125
1969/12/31/18:00:11.984,176,1731183065,915842174,RU_myo,-0.4447373162800298,-0.7039995805256133,0.2863602975141897,-0.4739104241683041,-6.4375,-30.25,-14.3125,0.93701171875,0.3212890625,0.20947265625
1969/12/31/18:00:12.014,177,1731183065,943555489,RU_myo,-0.4448769956771498,-0.707323295774796,0.2816109834071023,-0.471670931896421,22.25,-17.625,-27.5,0.8857421875,0.4033203125,0.03076171875
1969/12/31/18:00:12.024,178,1731183065,952753276,RU_myo,-0.4417403389558962,-0.7121064209639952,0.2747602937247091,-0.4714622987613013,46.5625,-10.75,-29.5,0.92333984375,0.34716796875,-0.0224609375
1969/12/31/18:00:12.048,179,1731183065,975270460,RU_myo,-0.4379028887855135,-0.7158415306711203,0.2698824493671833,-0.4722027387503161,41.125,-11.0625,-27.625,0.95849609375,0.17138671875,-0.0185546875
1969/12/31/18:00:12.071,180,1731183065,996109718,RU_myo,-0.4318742607210207,-0.7213569654411736,0.2659237074564001,-0.471607180976728,43.4375,-10.125,-20.0625,0.8720703125,0.19677734375,-0.27685546875
1969/12/31/18:00:12.090,181,1731183066,12789291,RU_myo,-0.4241133923551926,-0.7300072364312071,0.2569459464405469,-0.4703148368814382,73.875,-7.5,-20.9375,0.84130859375,0.53369140625,-0.357421875
1969/12/31/18:00:12.115,182,1731183066,35277775,RU_myo,-0.4189141185134369,-0.7357240237003907,0.2491879874548896,-0.4702408629292003,57.0625,-4.5625,-24.0625,1.01123046875,0.4755859375,-0.22998046875
1969/12/31/18:00:12.137,183,1731183066,56207574,RU_myo,-0.414111510867959,-0.7374053462500635,0.2453542039335586,-0.4738631938657087,40.9375,6.4375,-4.4375,1.0986328125,0.34619140625,-0.150390625
1969/12/31/18:00:12.155,184,1731183066,72794062,RU_myo,-0.4124694996340788,-0.7359510545409473,0.243343577247865,-0.478569598495237,17.6875,18.375,4.125,1.0712890625,0.3642578125,-0.11376953125
1969/12/31/18:00:12.155,1,1731183072,378137267,RU_myo,-0.5588543521114862,-0.5113117573430196,-0.0275246601291121,-0.6522917238579845,-57.25,273.625,-62.125,1.01708984375,0.29931640625,0.49169921875
1969/12/31/18:00:12.171,2,1731183072,393071167,RU_myo,-0.5632641998290953,-0.4778804512581878,-0.0524264760703427,-0.6720231990809586,-26.4375,265.4375,-39.9375,0.98681640625,0.21826171875,0.55908203125
1969/12/31/18:00:12.196,3,1731183072,415568211,RU_myo,-0.5596728607809683,-0.4498744445819539,-0.0792819025250248,-0.6914431668252552,19.875,253.0625,-12.625,0.89501953125,0.2890625,0.5673828125
1969/12/31/18:00:12.220,4,1731183072,438210331,RU_myo,-0.5498299496524068,-0.4260587055748088,-0.1083913853460622,-0.7102199049955665,57.3125,246.25,6.375,0.86376953125,0.26025390625,0.4423828125
1969/12/31/18:00:12.237,5,1731183072,453182430,RU_myo,-0.5359733281520841,-0.4032921603767901,-0.1396997208084855,-0.7284037430534187,78.25,250.0,17.6875,0.77685546875,0.40576171875,0.400390625
1969/12/31/18:00:12.262,6,1731183072,475577686,RU_myo,-0.5195835963217096,-0.3826229960461409,-0.1702852383105332,-0.7447385225323035,87.875,235.9375,27.1875,0.7158203125,0.5712890625,0.4912109375
1969/12/31/18:00:12.305,7,1731183072,515892148,RU_myo,-0.5013903912541102,-0.3663232049065331,-0.2011054582084349,-0.7576091207105625,107.25,211.625,30.0625,0.5888671875,0.693359375,0.4169921875
1969/12/31/18:00:12.308,8,1731183072,518325124,RU_myo,-0.4850124613922433,-0.3473267796380089,-0.2272790243141706,-0.7697215506579808,75.625,206.3125,26.8125,0.4521484375,0.53466796875,0.173828125
1969/12/31/18:00:12.327,9,1731183072,535524778,RU_myo,-0.4690915674341216,-0.3262157725651028,-0.2503530587581013,-0.7815751512570077,56.8125,205.8125,26.125,0.45458984375,0.37890625,0.17919921875
1969/12/31/18:00:12.361,10,1731183072,566914878,RU_myo,-0.4508982788048651,-0.3119303063036905,-0.2751285112144466,-0.7897433307708385,93.3125,174.875,34.25,0.375,0.52099609375,0.35986328125
1969/12/31/18:00:12.386,11,1731183072,589475612,RU_myo,-0.430652779559334,-0.3043743497253966,-0.3005292356221883,-0.7947179482202505,120.6875,143.6875,45.0625,0.34375,0.57421875,0.25244140625
1969/12/31/18:00:12.393,12,1731183072,595891471,RU_myo,-0.4130668861300409,-0.2980819550619267,-0.3208470183784906,-0.798486121637016,95.9375,118.6875,41.125,0.3349609375,0.62890625,0.12744140625
1969/12/31/18:00:12.417,13,1731183072,618024914,RU_myo,-0.3964652009866703,-0.2941141938969772,-0.3349447387646008,-0.8025734902978316,60.8125,98.1875,48.0,0.29443359375,0.64501953125,0.22314453125
1969/12/31/18:00:12.433,14,1731183072,633028596,RU_myo,-0.3777809714799077,-0.2949010749904546,-0.3497067797382667,-0.8049969327657484,87.875,78.625,59.5625,0.34228515625,0.68798828125,0.3544921875
1969/12/31/18:00:12.458,15,1731183072,655695754,RU_myo,-0.3614267387527262,-0.2970998588733993,-0.3653327352539376,-0.8047573416402309,83.25,64.625,49.0,0.32373046875,0.923828125,0.263671875
1969/12/31/18:00:12.482,16,1731183072,677957030,RU_myo,-0.3511770971014014,-0.2950278219305134,-0.371683788902943,-0.8071458305815143,23.125,52.8125,36.0625,0.2607421875,0.89697265625,0.35546875
1969/12/31/18:00:12.498,17,1731183072,693211492,RU_myo,-0.3423842246797188,-0.2907519512253441,-0.3706416036506118,-0.8129336671539849,-5.3125,49.6875,37.75,0.31298828125,0.68505859375,0.578125
1969/12/31/18:00:12.524,18,1731183072,715551589,RU_myo,-0.3332361901809784,-0.2890488272339035,-0.3716865198172451,-0.8168558918282444,3.5625,41.5,38.6875,0.35498046875,0.859375,0.513671875
1969/12/31/18:00:12.547,19,1731183072,738152689,RU_myo,-0.327989424793128,-0.2856938030250525,-0.3711395035666192,-0.8204007904855278,-25.9375,36.125,25.9375,0.26708984375,1.009765625,0.39111328125
1969/12/31/18:00:12.566,20,1731183072,754736684,RU_myo,-0.3273665243990377,-0.2797018607980592,-0.3643508856566471,-0.8257399468901903,-63.8125,26.0,14.375,0.18896484375,0.8662109375,0.45166015625
1969/12/31/18:00:12.589,21,1731183072,775584103,RU_myo,-0.3259042832866319,-0.2762252408530516,-0.3559924502642179,-0.8311169531455718,-51.0,14.3125,19.1875,0.26806640625,0.65625,0.57470703125
1969/12/31/18:00:12.614,22,1731183072,798362770,RU_myo,-0.320589527623897,-0.2771363116200487,-0.3534235588178159,-0.8339721863659912,-3.5,11.875,27.625,0.36865234375,0.66015625,0.59814453125
1969/12/31/18:00:12.631,23,1731183072,814599035,RU_myo,-0.3158351405990107,-0.2781790475073025,-0.3556883477122771,-0.8344761115768643,15.875,13.125,18.3125,0.31298828125,0.7900390625,0.54833984375
1969/12/31/18:00:12.654,24,1731183072,835523566,RU_myo,-0.3116832182932781,-0.2785436084375409,-0.3580664659734996,-0.8348984582439876,22.4375,11.5,16.5,0.236328125,0.69140625,0.60986328125
1969/12/31/18:00:12.680,25,1731183072,859748552,RU_myo,-0.3043543816589936,-0.281041092348038,-0.361722161638832,-0.8351894351320088,44.4375,9.125,31.25,0.23046875,0.5078125,0.59326171875
1969/12/31/18:00:12.698,26,1731183072,876015177,RU_myo,-0.2958175806683784,-0.2853202371827252,-0.3689938297340656,-0.8336233411077741,59.625,7.125,35.0,0.24853515625,0.75341796875,0.5517578125
1969/12/31/18:00:12.720,27,1731183072,895554106,RU_myo,-0.2909889095147547,-0.2876933136435725,-0.3760641066337916,-0.8313445732822963,41.375,6.3125,18.0625,0.255859375,1.06005859375,0.57470703125
1969/12/31/18:00:12.739,28,1731183072,913581162,RU_myo,-0.289468297360121,-0.2860505818526011,-0.3752163382184322,-0.8328240324217187,-11.4375,13.0,7.875,0.30322265625,0.9599609375,0.60546875
1969/12/31/18:00:12.762,29,1731183072,934594817,RU_myo,-0.288794034544668,-0.2821417628275571,-0.3687433551815054,-0.8372707861196745,-39.25,17.1875,9.0,0.30859375,0.720703125,0.64501953125
1969/12/31/18:00:12.784,30,1731183072,955478521,RU_myo,-0.2875169347073817,-0.2784233190692157,-0.3645990592107616,-0.8407627451770091,-30.875,19.5625,10.3125,0.2666015625,0.77099609375,0.58349609375
1969/12/31/18:00:12.804,31,1731183072,973473092,RU_myo,-0.2863006885277095,-0.2759862957839059,-0.36442153297782,-0.8420572584985736,-10.875,15.1875,6.25,0.20556640625,0.798828125,0.5068359375
1969/12/31/18:00:12.828,32,1731183072,994623175,RU_myo,-0.2849483576335749,-0.275427701435066,-0.3652636368466365,-0.8423339541783252,5.0625,8.0,3.75,0.24755859375,0.70556640625,0.54150390625
1969/12/31/18:00:12.851,33,1731183073,15584048,RU_myo,-0.2816080277729604,-0.2765422570089474,-0.3691298985632563,-0.84140621388774,31.0,8.3125,6.9375,0.294921875,0.6748046875,0.5576171875
1969/12/31/18:00:12.870,34,1731183073,33464548,RU_myo,-0.2775160139292792,-0.278248407192343,-0.3764501372148217,-0.8389564828396464,46.4375,7.5,10.0,0.216796875,0.79052734375,0.5087890625
1969/12/31/18:00:12.893,35,1731183073,54652543,RU_myo,-0.2751878439297252,-0.2797651533763274,-0.3839447163809938,-0.8358167049495645,41.0625,3.25,3.25,0.18359375,0.8857421875,0.46728515625
1969/12/31/18:00:12.916,36,1731183073,75498064,RU_myo,-0.2746494430637721,-0.2812410296973027,-0.3878050136060462,-0.8337136427224727,20.75,-3.375,-0.8125,0.21240234375,0.82177734375,0.45947265625
1969/12/31/18:00:12.936,37,1731183073,93561984,RU_myo,-0.2742139506735019,-0.2825752485239959,-0.3887698343623875,-0.8329561537484874,5.0625,-2.75,0.5,0.30419921875,0.86865234375,0.509765625
1969/12/31/18:00:12.960,38,1731183073,115931455,RU_myo,-0.2744600073206491,-0.282638268601718,-0.3893218560592441,-0.8325958238533012,0.9375,0.75,-3.25,0.2978515625,0.87255859375,0.54833984375
1969/12/31/18:00:12.981,39,1731183073,135549769,RU_myo,-0.275441007415795,-0.282520811727834,-0.3911591882401574,-0.831449777094034,7.5,-0.5,-9.25,0.26220703125,0.8740234375,0.54052734375
1969/12/31/18:00:13.001,40,1731183073,153508271,RU_myo,-0.2767074715458694,-0.2835427685933192,-0.395043551679844,-0.8288407964412114,21.625,-6.25,-12.5,0.23828125,0.85888671875,0.52099609375
1969/12/31/18:00:13.025,41,1731183073,176073920,RU_myo,-0.2780093893514616,-0.2859437956337207,-0.4015419917767872,-0.824445846621195,37.5625,-10.6875,-16.6875,0.23388671875,0.87353515625,0.4609375
1969/12/31/18:00:13.046,42,1731183073,195416434,RU_myo,-0.2804983096144197,-0.2890426445461035,-0.4100670457570248,-0.8183031626001173,44.9375,-17.25,-23.1875,0.16552734375,0.8857421875,0.35205078125
1969/12/31/18:00:13.066,43,1731183073,213520227,RU_myo,-0.2845885004017414,-0.2930718376429685,-0.4182468353534492,-0.8112877837959143,46.125,-27.3125,-29.625,0.154296875,0.849609375,0.337890625
1969/12/31/18:00:13.090,44,1731183073,236204593,RU_myo,-0.288991381263176,-0.2982073682897313,-0.427353252714838,-0.8030725648702998,53.5625,-31.4375,-35.5,0.2431640625,0.9736328125,0.3623046875
1969/12/31/18:00:13.111,45,1731183073,255445481,RU_myo,-0.2949150777661832,-0.3014456889667175,-0.4356589042001275,-0.7952087227267387,40.6875,-26.4375,-46.0625,0.2763671875,1.1298828125,0.37646484375
1969/12/31/18:00:13.132,46,1731183073,273481045,RU_myo,-0.3049248733752391,-0.3010797438671046,-0.4409692174011415,-0.7886177519778753,10.3125,-25.9375,-60.1875,0.15380859375,1.11328125,0.3447265625
1969/12/31/18:00:13.156,47,1731183073,296089786,RU_myo,-0.318825944888424,-0.2992960248340029,-0.4433902162355285,-0.7824174221802443,-12.125,-35.8125,-72.6875,0.06689453125,1.07861328125,0.3359375
1969/12/31/18:00:13.178,48,1731183073,315616518,RU_myo,-0.335016747175973,-0.2968093353100304,-0.4442069385947771,-0.7761109413535567,-10.1875,-41.6875,-87.875,0.1259765625,1.01904296875,0.53369140625
1969/12/31/18:00:13.205,49,1731183073,341041265,RU_myo,-0.3498958941498263,-0.2943568633323936,-0.448401383973273,-0.7680254547324986,19.875,-33.8125,-96.125,0.1591796875,0.9169921875,0.607421875
1969/12/31/18:00:13.222,50,1731183073,356709430,RU_myo,-0.3641216142658139,-0.2921639570047689,-0.455365632590888,-0.7580882619503311,31.25,-30.8125,-98.9375,0.10302734375,0.982421875,0.5009765625
1969/12/31/18:00:13.242,51,1731183073,375377681,RU_myo,-0.3785816636862116,-0.2899021284071426,-0.4629279250459319,-0.7472151069660309,33.4375,-32.625,-99.4375,0.021484375,1.0302734375,0.47900390625
1969/12/31/18:00:13.261,52,1731183073,392741377,RU_myo,-0.3929780948525336,-0.2880659431128993,-0.4699380851629925,-0.7360328970215182,34.0625,-33.3125,-103.625,0.1162109375,0.88671875,0.51513671875
1969/12/31/18:00:13.287,53,1731183073,415859964,RU_myo,-0.406541475223431,-0.2861231700716776,-0.4747154472733593,-0.7262938830744377,31.0625,-31.8125,-98.0,0.11572265625,0.77734375,0.49951171875
1969/12/31/18:00:13.309,54,1731183073,436285017,RU_myo,-0.418864986641008,-0.283678341528108,-0.4791039115739345,-0.7173131557615864,20.6875,-27.125,-87.75,0.03173828125,0.78271484375,0.38134765625
1969/12/31/18:00:13.327,55,1731183073,452698832,RU_myo,-0.4302218995209353,-0.2813012817267685,-0.4827713470294508,-0.7090208266044412,14.9375,-26.4375,-79.0625,-0.01806640625,0.88623046875,0.38232421875
1969/12/31/18:00:13.351,56,1731183073,475150762,RU_myo,-0.4415710916279229,-0.279529453995285,-0.4849652928922565,-0.7012039076314038,14.5625,-28.75,-80.0625,0.0576171875,0.90771484375,0.4638671875
1969/12/31/18:00:13.374,57,1731183073,496213799,RU_myo,-0.4527389535822232,-0.2767823071576412,-0.4864288838029548,-0.6941224210151826,4.625,-24.0,-80.875,0.0830078125,0.7568359375,0.36328125
1969/12/31/18:00:13.392,58,1731183073,512639947,RU_myo,-0.4620142490712763,-0.274584162030604,-0.4872816069465086,-0.6882608569057838,1.8125,-21.8125,-65.0,0.0263671875,0.705078125,0.32568359375
1969/12/31/18:00:13.417,59,1731183073,535705169,RU_myo,-0.4676200623852714,-0.2764097184211556,-0.4902625895511465,-0.6815949956563183,35.125,-22.75,-45.3125,0.02685546875,0.69921875,0.41015625
1969/12/31/18:00:13.439,60,1731183073,556149274,RU_myo,-0.4703040044140588,-0.2824509385450641,-0.4968524396489557,-0.6724382975128602,75.25,-25.3125,-32.375,-0.01318359375,0.80078125,0.47705078125
1969/12/31/18:00:13.458,61,1731183073,572584651,RU_myo,-0.47225468489885,-0.2883695252193158,-0.5033802844463316,-0.6636466068221885,64.375,-24.875,-24.6875,-0.08544921875,0.8369140625,0.31298828125
1969/12/31/18:00:13.482,62,1731183073,595286676,RU_myo,-0.4746416578011691,-0.2926458466190826,-0.5070493626092468,-0.6572477835747448,40.9375,-24.875,-17.3125,-0.12646484375,0.80078125,0.28271484375
1969/12/31/18:00:13.507,63,1731183073,617590201,RU_myo,-0.476097106186849,-0.2992313949024638,-0.5097247828320168,-0.6511319094869238,50.6875,-31.25,-7.6875,-0.07470703125,0.74853515625,0.34619140625
1969/12/31/18:00:13.523,64,1731183073,632586980,RU_myo,-0.4761106016934441,-0.306685780478087,-0.5125467033741243,-0.6454133589165713,48.9375,-28.625,-2.5,-0.033203125,0.927734375,0.29931640625
1969/12/31/18:00:13.547,65,1731183073,655269192,RU_myo,-0.4776776294645216,-0.3108230697410002,-0.5130747196765343,-0.6418468926892007,17.4375,-24.5625,-6.3125,-0.0576171875,0.92431640625,0.21826171875
1969/12/31/18:00:13.570,66,1731183073,676252067,RU_myo,-0.479585397134758,-0.3144342028554687,-0.5111997055740307,-0.6401592301535349,2.6875,-26.125,-0.4375,-0.0322265625,0.7802734375,0.2001953125
1969/12/31/18:00:13.589,67,1731183073,692824744,RU_myo,-0.4801350533732356,-0.3202324424875261,-0.5090639990067571,-0.6385729075180074,8.8125,-30.75,9.625,-0.00048828125,0.86181640625,0.20556640625
1969/12/31/18:00:13.612,68,1731183073,715118833,RU_myo,-0.4809190990813752,-0.3258409987303886,-0.5072231767087956,-0.6366075028575919,9.6875,-30.75,8.3125,-0.03173828125,0.98974609375,0.234375
1969/12/31/18:00:13.635,69,1731183073,736223578,RU_myo,-0.4822710006682083,-0.3298753174654095,-0.5043033761732986,-0.6358262825818013,3.1875,-27.5,8.375,-0.037109375,0.89697265625,0.30224609375
1969/12/31/18:00:13.653,70,1731183073,752047200,RU_myo,-0.4827592959138549,-0.3353071519280302,-0.5018621605941377,-0.6345446775747597,12.9375,-29.0,10.75,0.0126953125,0.82373046875,0.2890625
1969/12/31/18:00:13.678,71,1731183073,775097715,RU_myo,-0.4826472996933151,-0.3411122607468309,-0.5000416447126114,-0.6329710603337597,15.6875,-27.4375,11.875,0.01513671875,0.9189453125,0.27880859375
1969/12/31/18:00:13.702,72,1731183073,796274633,RU_myo,-0.4822031295346484,-0.3462878821642318,-0.4985593425096245,-0.6316671801903065,15.8125,-23.0625,11.9375,0.009765625,0.96923828125,0.29736328125
1969/12/31/18:00:13.718,73,1731183073,812050793,RU_myo,-0.4819724757942272,-0.3495933064897218,-0.4958268194697103,-0.6321730915887813,4.375,-16.875,13.875,0.013671875,0.97412109375,0.3583984375
1969/12/31/18:00:13.743,74,1731183073,835096733,RU_myo,-0.4822790747228641,-0.3521577146483075,-0.4925325402446865,-0.6330904634396696,-3.0625,-16.75,13.1875,0.0009765625,0.98876953125,0.3486328125
1969/12/31/18:00:13.766,75,1731183073,856102953,RU_myo,-0.4834374926221843,-0.3542929736992525,-0.4889914393244464,-0.6337602478713245,-11.8125,-19.4375,11.25,-0.0322265625,0.95458984375,0.25830078125
1969/12/31/18:00:13.784,76,1731183073,872117840,RU_myo,-0.4844831894828664,-0.3560078664970471,-0.4853376571891854,-0.6348084723874142,-10.5625,-17.375,11.125,-0.01806640625,0.90234375,0.3017578125
1969/12/31/18:00:13.809,77,1731183073,895155637,RU_myo,-0.4837981472107283,-0.3591104198546644,-0.4836760838457199,-0.634851561408603,8.5625,-13.3125,12.5,0.02099609375,0.92626953125,0.337890625
1969/12/31/18:00:13.832,78,1731183073,916215396,RU_myo,-0.4828369089225814,-0.3622344905139074,-0.4830810433728014,-0.634261301671529,9.5,-10.6875,9.25,0.02734375,1.01171875,0.275390625
1969/12/31/18:00:13.849,79,1731183073,931919121,RU_myo,-0.4829457184370748,-0.3644827284855568,-0.4815419838832959,-0.6340607947482333,-2.0625,-12.3125,6.25,0.0302734375,0.99267578125,0.232421875
1969/12/31/18:00:13.874,80,1731183073,955174286,RU_myo,-0.483313878685938,-0.3663762108538561,-0.479163690057242,-0.6344906027047622,-6.3125,-12.9375,6.0625,0.05908203125,0.97802734375,0.26416015625
1969/12/31/18:00:13.897,81,1731183073,976241098,RU_myo,-0.4838030994119463,-0.3677196510605496,-0.4766623194660402,-0.6352242536494939,-4.75,-10.5625,6.4375,0.046875,0.95849609375,0.32958984375
1969/12/31/18:00:13.916,82,1731183073,992665136,RU_myo,-0.4841638350464317,-0.3691802644895834,-0.4745208392141694,-0.6357053454990083,-5.5,-11.0625,6.4375,0.0380859375,0.9287109375,0.27294921875
1969/12/31/18:00:13.940,83,1731183074,15188893,RU_myo,-0.4844896713262734,-0.3710270486259028,-0.4729542029613622,-0.6355493761048735,-4.5625,-11.625,5.25,0.0341796875,0.96630859375,0.22265625
1969/12/31/18:00:13.962,84,1731183074,36136901,RU_myo,-0.4845405687812392,-0.3723620116052828,-0.471540551001871,-0.635780212242621,1.75,-7.75,4.9375,0.04736328125,0.97509765625,0.341796875
1969/12/31/18:00:13.981,85,1731183074,52624945,RU_myo,-0.4842813813912612,-0.3739372430730003,-0.4709155814511621,-0.6355163231792317,7.4375,-6.9375,3.5625,0.0537109375,0.9638671875,0.33740234375
1969/12/31/18:00:14.005,86,1731183074,75228577,RU_myo,-0.484459344349585,-0.3751538913727512,-0.469689986660923,-0.6355706238418467,-4.375,-8.125,5.0,0.02392578125,0.9365234375,0.23193359375
1969/12/31/18:00:14.030,87,1731183074,97727927,RU_myo,-0.4847027383978,-0.3767401163598111,-0.4679194025807017,-0.6357527607516851,-4.75,-10.75,7.25,0.03466796875,0.916015625,0.23974609375
1969/12/31/18:00:14.046,88,1731183074,112841291,RU_myo,-0.4847692217112123,-0.3782090981926706,-0.4661547671446858,-0.6361260981865751,-0.4375,-9.5,7.8125,0.0380859375,0.9677734375,0.3251953125
1969/12/31/18:00:14.070,89,1731183074,135083667,RU_myo,-0.4849521349760161,-0.379124422661844,-0.464384696077587,-0.6367361721878652,-0.6875,-7.8125,7.8125,0.0224609375,0.91357421875,0.34521484375
1969/12/31/18:00:14.095,90,1731183074,157673464,RU_myo,-0.4859966119969344,-0.3797401632355803,-0.4624383183600116,-0.6369894059289218,-9.75,-10.375,4.75,0.005859375,0.9677734375,0.26904296875
1969/12/31/18:00:14.118,91,1731183074,178633664,RU_myo,-0.4874140222471617,-0.3799949539833244,-0.459948919566067,-0.6375565835704797,-16.375,-10.8125,4.125,0.0107421875,1.001953125,0.2509765625
1969/12/31/18:00:14.138,92,1731183074,196819957,RU_myo,-0.4892853707187658,-0.3799788846320364,-0.4568168890894302,-0.6383840560955832,-19.6875,-11.8125,2.25,0.03857421875,0.9794921875,0.26806640625
1969/12/31/18:00:14.161,93,1731183074,217759148,RU_myo,-0.4918049202936209,-0.3793819042622422,-0.4531099191188684,-0.6394440493815173,-23.25,-12.8125,1.5625,0.0166015625,0.89013671875,0.2900390625
1969/12/31/18:00:14.191,94,1731183074,246160690,RU_myo,-0.4936257135318251,-0.3802285107941729,-0.4501710265839196,-0.6396139314804065,-12.375,-16.9375,4.9375,-0.00048828125,0.857421875,0.28125
1969/12/31/18:00:14.210,95,1731183074,262657166,RU_myo,-0.4951472072320596,-0.3821782092551654,-0.4475427672417962,-0.6391201225359457,-7.1875,-19.9375,5.25,0.0205078125,0.8642578125,0.26611328125
1969/12/31/18:00:14.226,96,1731183074,277721623,RU_myo,-0.4949616418323753,-0.3854109455205241,-0.4468081602780296,-0.6378352797521769,2.75,-13.875,0.5625,0.15283203125,1.22021484375,0.27734375
1969/12/31/18:00:14.249,97,1731183074,298612433,RU_myo,-0.4979619222959192,-0.3827330818381798,-0.4446197578043597,-0.6386412005030639,-23.25,-2.625,-10.4375,0.05419921875,1.18359375,0.40673828125
1969/12/31/18:00:14.268,98,1731183074,315405963,RU_myo,-0.5010073862502399,-0.3785782454513628,-0.4407082879903742,-0.6414408124607164,-31.625,1.4375,-3.25,0.005859375,0.79248046875,0.39697265625
1969/12/31/18:00:14.292,99,1731183074,337715833,RU_myo,-0.5022896300466052,-0.3780294007908472,-0.4391830106701545,-0.6418077459987972,-9.4375,-4.5,-2.5625,0.052734375,0.79638671875,0.30126953125
1969/12/31/18:00:14.315,100,1731183074,358616433,RU_myo,-0.5005699212895837,-0.3798521324196987,-0.4413706011663337,-0.6405732618697233,24.5,1.6875,0.0,0.08203125,0.88427734375,0.36474609375
1969/12/31/18:00:14.332,101,1731183074,375185749,RU_myo,-0.4978253865847787,-0.3818064997516704,-0.4437524072401527,-0.6399042758785589,24.8125,6.0,5.25,0.08154296875,0.9482421875,0.3583984375
1969/12/31/18:00:14.357,102,1731183074,397683924,RU_myo,-0.495396798272524,-0.3826706819229673,-0.4459608728566383,-0.6397374940855731,16.125,8.8125,5.625,0.0478515625,0.95751953125,0.30859375
1969/12/31/18:00:14.380,103,1731183074,418801221,RU_myo,-0.4949615395111408,-0.3815659118401545,-0.4464418818155358,-0.6403984505660174,-6.3125,7.0625,2.1875,0.01318359375,1.00732421875,0.2666015625
1969/12/31/18:00:14.397,104,1731183074,435160662,RU_myo,-0.495827084504242,-0.3799265880156212,-0.4457194975547119,-0.641206222279858,-17.8125,4.125,-3.75,0.048828125,0.97705078125,0.2265625
1969/12/31/18:00:14.422,105,1731183074,457721471,RU_myo,-0.4976318210043138,-0.3783808302951613,-0.4439261547688716,-0.6419657990120649,-25.875,-1.3125,-6.5,0.07373046875,0.9443359375,0.18408203125
1969/12/31/18:00:14.445,106,1731183074,478576353,RU_myo,-0.499918503715845,-0.3773038932940245,-0.4403506292650253,-0.6432842179422545,-29.4375,-8.0625,-2.0625,0.07373046875,0.79736328125,0.20166015625
1969/12/31/18:00:14.463,107,1731183074,495156255,RU_myo,-0.5022203170004551,-0.3784503810572149,-0.4347815698518947,-0.644604567767506,-34.0,-21.375,6.0,0.10107421875,0.75,0.138671875
1969/12/31/18:00:14.488,108,1731183074,517824968,RU_myo,-0.5057781381722597,-0.380905196130454,-0.4263135386911106,-0.6460313252749328,-48.125,-37.5,12.75,0.08984375,0.77783203125,0.09765625
1969/12/31/18:00:14.511,109,1731183074,538770960,RU_myo,-0.5116233155921195,-0.3848007878812255,-0.4135464137483242,-0.6474174080640824,-76.875,-61.125,20.0,0.06591796875,0.9033203125,-0.03076171875
1969/12/31/18:00:14.528,110,1731183074,554494360,RU_myo,-0.523396153144062,-0.3846131713052563,-0.3902889924622523,-0.6525363420494764,-134.25,-83.5,22.75,0.0751953125,1.08837890625,-0.10595703125
1969/12/31/18:00:14.553,111,1731183074,577815043,RU_myo,-0.542769576139842,-0.3788950330232924,-0.3552751268087282,-0.6600146403211797,-218.3125,-109.8125,15.1875,0.0595703125,1.03466796875,-0.13671875
1969/12/31/18:00:14.577,112,1731183074,599243046,RU_myo,-0.5688186921747274,-0.3660091949540601,-0.3073573963296059,-0.6693384760815703,-303.4375,-131.875,7.6875,0.1396484375,0.6552734375,-0.02392578125
1969/12/31/18:00:14.594,113,1731183074,615184801,RU_myo,-0.595552220177542,-0.3517285760281998,-0.2545653115761967,-0.6758705970737958,-319.4375,-148.8125,1.9375,0.26904296875,0.392578125,0.16259765625
1969/12/31/18:00:14.619,114,1731183074,637661506,RU_myo,-0.617825105082334,-0.3440363644521502,-0.2054941350204701,-0.6765377150881826,-261.75,-165.875,-0.5625,0.38037109375,0.2587890625,0.3095703125
1969/12/31/18:00:14.642,115,1731183074,658771716,RU_myo,-0.6342539514770689,-0.3451410792535436,-0.1624695938060005,-0.6724605501707415,-187.0625,-180.4375,3.25,0.48583984375,0.13671875,0.453125
1969/12/31/18:00:14.660,116,1731183074,675345959,RU_myo,-0.6427751179810715,-0.3561750463860172,-0.12608938413871,-0.6663939910022142,-106.25,-189.8125,20.8125,0.64794921875,0.06494140625,0.53076171875
1969/12/31/18:00:14.684,117,1731183074,697629017,RU_myo,-0.6418733991370114,-0.3758960031648619,-0.0974070500164181,-0.6612205387705982,-25.625,-185.75,49.875,0.76123046875,0.1103515625,0.64208984375
1969/12/31/18:00:14.707,118,1731183074,718645250,RU_myo,-0.6328399815683071,-0.4012238440380028,-0.0763509322925983,-0.6578020369701238,39.3125,-172.375,75.5,0.77197265625,0.27880859375,0.73486328125
1969/12/31/18:00:14.731,119,1731183074,741155387,RU_myo,-0.6190619477763006,-0.4301024890051849,-0.0587751804898528,-0.654461329587427,74.3125,-171.6875,88.3125,0.744140625,0.39306640625,0.65673828125
1969/12/31/18:00:14.749,120,1731183074,757688276,RU_myo,-0.6023305088759984,-0.459514277163582,-0.0385115565002284,-0.6515837990434855,70.9375,-181.4375,109.25,0.77197265625,0.51416015625,0.5146484375
1969/12/31/18:00:14.780,121,1731183074,786177905,RU_myo,-0.5857224871236912,-0.4876443338666555,-0.0144645440708882,-0.6472425732986085,51.25,-194.9375,116.8125,0.77685546875,0.75439453125,0.59912109375
1969/12/31/18:00:14.790,122,1731183074,794566735,RU_myo,-0.5724096333294684,-0.5147353499840853,0.0097039270390644,-0.638201038034572,36.625,-205.8125,91.4375,0.76171875,0.90576171875,0.50732421875
1969/12/31/18:00:14.815,123,1731183074,817747648,RU_myo,-0.5591296671403554,-0.5427116035598777,0.0393056986833739,-0.6255343257855586,22.0,-237.8125,93.4375,0.8310546875,0.67822265625,0.4775390625
1969/12/31/18:00:14.838,124,1731183074,838789332,RU_myo,-0.5388493179401929,-0.5842569397034167,0.0816604810741848,-0.6013458296143074,38.5,-362.75,115.25,1.15966796875,0.58935546875,0.265625
1969/12/31/18:00:14.864,125,1731183074,862681722,RU_myo,-0.5187823963259526,-0.6153979884887741,0.1094936022363245,-0.583233479916565,61.5,-267.5,91.25,1.07666015625,0.63623046875,0.546875
1969/12/31/18:00:14.880,126,1731183074,877878784,RU_myo,-0.498399560185041,-0.6442085914466211,0.1326257952831367,-0.5648040080764597,71.25,-248.0,78.375,0.99169921875,0.666015625,0.48095703125
1969/12/31/18:00:14.903,127,1731183074,898642849,RU_myo,-0.4699587895384902,-0.6731396740025986,0.1525840225774319,-0.5502179854142194,114.625,-230.625,100.0,0.9931640625,0.3701171875,0.34765625
1969/12/31/18:00:14.921,128,1731183074,914431810,RU_myo,-0.4386302850957146,-0.7012469703283375,0.1686898717134486,-0.536096900553883,136.5625,-220.5625,98.4375,1.11181640625,0.548828125,0.35595703125
1969/12/31/18:00:14.946,129,1731183074,937750723,RU_myo,-0.4118986742810438,-0.7213872173658228,0.182482891702522,-0.5259657393619849,109.375,-169.25,99.25,0.9951171875,0.859375,0.26318359375
1969/12/31/18:00:14.971,130,1731183074,960318907,RU_myo,-0.3924326558044809,-0.7342091523060505,0.1963994224539377,-0.5180355182688078,63.75,-129.6875,91.1875,1.04736328125,0.86572265625,0.13671875
1969/12/31/18:00:14.986,131,1731183074,974458838,RU_myo,-0.3858401956062458,-0.7398830577878073,0.2126942552495676,-0.5083911466940885,-15.25,-107.625,67.125,1.2666015625,0.92333984375,0.1220703125
1969/12/31/18:00:15.019,132,1731183075,5040689,RU_myo,-0.3965309014347834,-0.7357518880708502,0.2285682970406747,-0.499188278102985,-95.0,-80.6875,44.0625,1.21630859375,0.81982421875,0.2451171875
1969/12/31/18:00:15.036,133,1731183075,20405568,RU_myo,-0.403239122309864,-0.7361082267563599,0.2468748675258665,-0.4843507907750992,-95.8125,-104.8125,24.75,1.0693359375,0.4580078125,0.30126953125
1969/12/31/18:00:15.059,134,1731183075,41278736,RU_myo,-0.4144778763761704,-0.7303257647941769,0.2596971526992497,-0.4768540197507023,-97.625,-61.8125,-1.0,1.09521484375,0.19140625,0.2578125
1969/12/31/18:00:15.076,135,1731183075,57737775,RU_myo,-0.4241238881274093,-0.7267294770374245,0.2624453473806101,-0.4723405914833818,-54.9375,-25.8125,-27.9375,0.9560546875,0.26318359375,0.18115234375
1969/12/31/18:00:15.100,136,1731183075,80248479,RU_myo,-0.4235661465135963,-0.7282408155908114,0.2557875677288879,-0.4741621602686066,32.4375,3.5,-25.5625,0.88232421875,0.34326171875,0.0498046875
1969/12/31/18:00:15.124,137,1731183075,101426515,RU_myo,-0.418855283003628,-0.7293196316324282,0.2493723861799248,-0.480069307315538,50.4375,17.125,-17.75,0.96484375,0.1396484375,0.00927734375
1969/12/31/18:00:15.142,138,1731183075,117587313,RU_myo,-0.4139313766191261,-0.7310020787035201,0.2423653047116705,-0.4853409476371705,54.125,16.3125,-13.8125,0.974609375,0.265625,-0.03125
1969/12/31/18:00:15.166,139,1731183075,139989529,RU_myo,-0.4058541647374458,-0.7360912903606517,0.2308181129378977,-0.4900765327581488,81.0,34.8125,-13.3125,0.89404296875,0.49365234375,-0.39208984375
1969/12/31/18:00:15.189,140,1731183075,161153837,RU_myo,-0.4005003851730623,-0.7394181905473408,0.2246024714167737,-0.4923554719888896,46.8125,19.0,-7.25,0.97802734375,0.45068359375,-0.3876953125
1969/12/31/18:00:15.206,141,1731183075,176885382,RU_myo,-0.3979821403742624,-0.7387173481199313,0.2240442320677683,-0.4956925232509981,12.6875,14.5,4.25,1.0888671875,0.294921875,-0.2333984375
1969/12/31/18:00:15.206,1,1731183080,795341379,RU_myo,-0.4037978053123769,-0.7691444895022029,0.1724807433211574,-0.4643430626989969,76.75,34.375,-62.375,1.060546875,0.6865234375,-0.26416015625
1969/12/31/18:00:15.219,2,1731183080,808134037,RU_myo,-0.4020844046711109,-0.7713331369510474,0.1525210879285225,-0.4691595049646068,79.6875,45.375,-69.6875,1.17236328125,0.74658203125,-0.0927734375
1969/12/31/18:00:15.231,3,1731183080,818720062,RU_myo,-0.403358781811807,-0.7695492328438607,0.1331102289501515,-0.4768409989855725,64.3125,60.75,-63.625,1.18994140625,0.81298828125,0.08349609375
1969/12/31/18:00:15.252,4,1731183080,838083121,RU_myo,-0.4129404976422707,-0.7617977078880909,0.1151057905044816,-0.4856902867628127,13.125,84.1875,-70.8125,1.111328125,0.83544921875,0.17041015625
1969/12/31/18:00:15.277,5,1731183080,860668973,RU_myo,-0.4274121929004344,-0.7499701594117576,0.0974692663232891,-0.4953416189604349,-31.25,119.5625,-84.5625,1.138671875,0.89892578125,0.26025390625
1969/12/31/18:00:15.295,6,1731183080,877150372,RU_myo,-0.4489435815719908,-0.7330425990023358,0.0800725909492185,-0.504664828170037,-76.75,139.6875,-101.4375,0.8828125,0.79736328125,0.1171875
1969/12/31/18:00:15.317,7,1731183080,898200917,RU_myo,-0.4749452989851112,-0.713028261120927,0.0607871392687189,-0.5121743702239852,-99.8125,148.375,-126.9375,0.99609375,0.84423828125,0.1669921875
1969/12/31/18:00:15.342,8,1731183080,920754454,RU_myo,-0.5016728331876141,-0.6900137532870031,0.0411957618493478,-0.5201041221928039,-109.3125,159.875,-131.125,0.97509765625,0.6640625,0.24951171875
1969/12/31/18:00:15.360,9,1731183080,937103708,RU_myo,-0.5278141444775623,-0.6627583019058566,0.0217888123934423,-0.5307437326985293,-118.625,182.75,-120.9375,0.8662109375,0.57763671875,0.3603515625
1969/12/31/18:00:15.383,10,1731183080,957973366,RU_myo,-0.5516153268632995,-0.6315073895833769,0.0010375592561049,-0.5449017081473266,-116.8125,212.1875,-108.9375,0.96533203125,0.5966796875,0.47509765625
1969/12/31/18:00:15.408,11,1731183080,980595042,RU_myo,-0.5721636744317639,-0.596392898831701,-0.0211166540110283,-0.56258184009728,-114.0625,244.125,-94.6875,1.0146484375,0.5830078125,0.443359375
1969/12/31/18:00:15.429,12,1731183080,999986285,RU_myo,-0.5888304387668872,-0.5597184861039721,-0.0437594760153252,-0.5814456457433804,-104.8125,256.4375,-80.0,0.9853515625,0.5615234375,0.44970703125
1969/12/31/18:00:15.448,13,1731183081,18091875,RU_myo,-0.6018334615253215,-0.5235298076223718,-0.0660973165837058,-0.5994532257480689,-93.3125,254.125,-70.375,0.935546875,0.50537109375,0.40478515625
1969/12/31/18:00:15.473,14,1731183081,40575584,RU_myo,-0.6096333403503224,-0.4898305325509747,-0.0881890256087912,-0.6169569964562427,-68.6875,245.875,-53.6875,0.9150390625,0.3369140625,0.3974609375
1969/12/31/18:00:15.491,15,1731183081,57059477,RU_myo,-0.6103842182892146,-0.4594512943986809,-0.1118722399884142,-0.635468501232607,-31.9375,246.1875,-27.3125,0.7783203125,0.27294921875,0.4306640625
1969/12/31/18:00:15.514,16,1731183081,78144999,RU_myo,-0.6040470600541059,-0.4338250482837814,-0.1361043693968532,-0.6545216400950017,4.75,237.1875,2.4375,0.767578125,0.31689453125,0.41259765625
1969/12/31/18:00:15.539,17,1731183081,100593317,RU_myo,-0.592250746598683,-0.4117192432558446,-0.1627102731277915,-0.6732396935006258,38.0625,236.4375,19.375,0.755859375,0.48193359375,0.4228515625
1969/12/31/18:00:15.558,18,1731183081,118511317,RU_myo,-0.5781693710686272,-0.3908578752584702,-0.1904852324612251,-0.6904097884015952,51.75,233.25,22.9375,0.64892578125,0.62109375,0.42724609375
1969/12/31/18:00:15.579,19,1731183081,138121624,RU_myo,-0.5622200561842231,-0.3699715567291316,-0.2174544138280923,-0.7069251965677221,53.5,230.4375,31.0,0.5322265625,0.56982421875,0.376953125
1969/12/31/18:00:15.604,20,1731183081,160636561,RU_myo,-0.544767430362886,-0.3539218383009607,-0.2415627928944995,-0.7208433923387907,64.875,197.3125,41.0,0.462890625,0.5576171875,0.4111328125
1969/12/31/18:00:15.622,21,1731183081,176915856,RU_myo,-0.5252775930863389,-0.3428005391386041,-0.2631575440209472,-0.7330207006576062,73.5,168.0,57.25,0.3916015625,0.72412109375,0.349609375
1969/12/31/18:00:15.644,22,1731183081,198274286,RU_myo,-0.509367575250128,-0.3275552092460384,-0.2793404495470687,-0.7451316470439506,30.4375,163.25,46.75,0.32177734375,0.7041015625,0.2353515625
1969/12/31/18:00:15.669,23,1731183081,220554872,RU_myo,-0.4980061258895723,-0.3092398333189293,-0.2912969655479079,-0.7559806227198692,-2.625,153.25,27.9375,0.19677734375,0.5966796875,0.181640625
1969/12/31/18:00:15.689,24,1731183081,238746554,RU_myo,-0.4859970319829613,-0.294600988745668,-0.3018027531276835,-0.7654621091460883,5.375,131.4375,35.3125,0.16845703125,0.53662109375,0.1806640625
1969/12/31/18:00:15.710,25,1731183081,258186093,RU_myo,-0.4694570037048118,-0.2893520091737536,-0.3150464187629015,-0.7724191158200856,56.625,102.25,58.9375,0.23486328125,0.525390625,0.23388671875
1969/12/31/18:00:15.735,26,1731183081,280652790,RU_myo,-0.4509588236917081,-0.291057332546455,-0.3326805451270133,-0.7754001698474966,104.375,80.0,62.1875,0.2333984375,0.61376953125,0.22998046875
1969/12/31/18:00:15.753,27,1731183081,297263797,RU_myo,-0.4341211098683606,-0.2939914784529584,-0.3493475654275969,-0.7765720514501647,102.75,65.375,55.25,0.1865234375,0.73876953125,0.19873046875
1969/12/31/18:00:15.775,28,1731183081,318189094,RU_myo,-0.4180016502415832,-0.2988080127876757,-0.3643553587300703,-0.7766811214738484,83.75,52.0625,57.0625,0.16162109375,0.89111328125,0.2255859375
1969/12/31/18:00:15.800,29,1731183081,340601088,RU_myo,-0.4040274649597736,-0.3039971001457149,-0.3757699549482366,-0.7766237902738852,69.5625,36.125,54.4375,0.18359375,0.98828125,0.32763671875
1969/12/31/18:00:15.819,30,1731183081,357202515,RU_myo,-0.3938999395068493,-0.3068074056245633,-0.3806560152934954,-0.7783399331470173,34.0625,26.0,45.75,0.212890625,0.89599609375,0.42578125
1969/12/31/18:00:15.841,31,1731183081,378162360,RU_myo,-0.3861474084577319,-0.3079048009592631,-0.3807155893724248,-0.7817547265584145,6.6875,21.5625,39.5625,0.25732421875,0.787109375,0.458984375
1969/12/31/18:00:15.866,32,1731183081,400501619,RU_myo,-0.3792431480736105,-0.3093632953950968,-0.379975513341857,-0.7849124762431131,4.9375,14.3125,39.25,0.244140625,0.8115234375,0.50341796875
1969/12/31/18:00:15.883,33,1731183081,417045159,RU_myo,-0.3738208167695018,-0.3114461433428192,-0.3793136940771353,-0.7870072542437103,-4.6875,6.875,35.5625,0.22705078125,0.98486328125,0.42041015625
1969/12/31/18:00:15.906,34,1731183081,438062576,RU_myo,-0.371676376625802,-0.3118663849848683,-0.3744837843967029,-0.7901632263011918,-34.8125,0.75,26.0625,0.2490234375,0.958984375,0.421875
1969/12/31/18:00:15.931,35,1731183081,460560542,RU_myo,-0.371022136593451,-0.3112704222119757,-0.3674821984584913,-0.7939837103050181,-39.4375,0.125,15.625,0.33447265625,0.78955078125,0.533203125
1969/12/31/18:00:15.949,36,1731183081,477087112,RU_myo,-0.3681413543201439,-0.3128469135021647,-0.3639301882975825,-0.7963375980055102,-9.8125,1.25,18.1875,0.3662109375,0.7001953125,0.51904296875
1969/12/31/18:00:15.971,37,1731183081,498035565,RU_myo,-0.3646063433375094,-0.31571955374706,-0.364850472124478,-0.7964091352881086,14.375,1.125,13.8125,0.40869140625,1.0146484375,0.63037109375
1969/12/31/18:00:15.997,38,1731183081,520790842,RU_myo,-0.3616817153486603,-0.3174327710982758,-0.3663812583931839,-0.796358930453817,12.1875,5.125,10.3125,0.36279296875,0.99755859375,0.58349609375
1969/12/31/18:00:16.014,39,1731183081,537124985,RU_myo,-0.3608269270349485,-0.3162118249269399,-0.363085146977488,-0.7987384969733375,-18.0625,6.25,8.3125,0.29833984375,0.77490234375,0.56640625
1969/12/31/18:00:16.037,40,1731183081,558237349,RU_myo,-0.3600933335488449,-0.3151732160078364,-0.358506481570494,-0.8015433473723694,-29.8125,3.5,13.875,0.24365234375,0.71484375,0.44775390625
1969/12/31/18:00:16.062,41,1731183081,580746594,RU_myo,-0.3597148150864423,-0.3141859294307779,-0.3550154528941016,-0.8036519655680815,-28.625,2.3125,13.0625,0.20654296875,0.79736328125,0.4287109375
1969/12/31/18:00:16.079,42,1731183081,597010155,RU_myo,-0.3603988900680404,-0.3134036071971867,-0.3506336364844864,-0.8055723878083092,-28.0625,-2.0625,5.3125,0.275390625,0.76953125,0.5244140625
1969/12/31/18:00:16.102,43,1731183081,618216997,RU_myo,-0.3593465302911723,-0.3139399714364454,-0.3475066480091602,-0.8071870260922293,-5.3125,-2.4375,8.5,0.30322265625,0.5859375,0.587890625
1969/12/31/18:00:16.127,44,1731183081,640837979,RU_myo,-0.3553960258516965,-0.3163958437257762,-0.3491096115184105,-0.8072854600618908,22.0,0.9375,18.125,0.279296875,0.70361328125,0.54296875
1969/12/31/18:00:16.147,45,1731183081,658536787,RU_myo,-0.3512989690409043,-0.3190131534358594,-0.3539843676923636,-0.805924754375459,36.5,2.75,14.3125,0.24658203125,0.8369140625,0.5478515625
1969/12/31/18:00:16.168,46,1731183081,678251708,RU_myo,-0.347995535427141,-0.3206539009354961,-0.3580045266249753,-0.8049303957819296,30.9375,5.5625,8.375,0.306640625,0.87353515625,0.60546875
1969/12/31/18:00:16.193,47,1731183081,700701360,RU_myo,-0.3454290219919563,-0.3205898679370577,-0.3612357563905282,-0.8046177077635959,20.875,12.0625,3.8125,0.31591796875,0.8916015625,0.6064453125
1969/12/31/18:00:16.212,48,1731183081,718565520,RU_myo,-0.3440352245678465,-0.3189512300144697,-0.3624667728771404,-0.8053121852355393,0.625,13.375,4.625,0.2392578125,0.8515625,0.51513671875
1969/12/31/18:00:16.235,49,1731183081,739720088,RU_myo,-0.3436090969215946,-0.3171823226823316,-0.3614303857850237,-0.8066574483148696,-11.75,8.875,4.1875,0.22607421875,0.77685546875,0.49658203125
1969/12/31/18:00:16.258,50,1731183081,760564183,RU_myo,-0.3430531582893789,-0.3167489577516237,-0.3608741015771389,-0.8073131431866046,-2.0,3.125,3.4375,0.26123046875,0.76220703125,0.54248046875
1969/12/31/18:00:16.278,51,1731183081,778604538,RU_myo,-0.3420820478166793,-0.3170590969505172,-0.3620393769221305,-0.807081712814945,7.25,3.0625,1.9375,0.279296875,0.814453125,0.53369140625
1969/12/31/18:00:16.298,52,1731183081,797982101,RU_myo,-0.3414090299818401,-0.317423733452905,-0.3639906068665882,-0.8063453886521402,11.0,2.6875,-1.1875,0.26416015625,0.80126953125,0.50146484375
1969/12/31/18:00:16.318,53,1731183081,815997280,RU_myo,-0.340864379490416,-0.3184045600360788,-0.3663147727307926,-0.8051357017435214,13.875,0.6875,-3.875,0.30126953125,0.83642578125,0.50634765625
1969/12/31/18:00:16.343,54,1731183081,838593885,RU_myo,-0.340313917860911,-0.3190748139485012,-0.3683885954462803,-0.8041564170974469,14.875,2.0625,-5.0,0.3232421875,0.81787109375,0.5517578125
1969/12/31/18:00:16.364,55,1731183081,858024452,RU_myo,-0.3394539348908526,-0.3194968265288769,-0.3707017620508879,-0.8032888692976271,15.625,4.25,-3.625,0.30224609375,0.80859375,0.52880859375
1969/12/31/18:00:16.389,56,1731183081,880585410,RU_myo,-0.3385433002258164,-0.3196844792830046,-0.3743689568388603,-0.8018965966589151,19.5,5.75,-4.0625,0.24951171875,0.82470703125,0.48388671875
1969/12/31/18:00:16.409,57,1731183081,898547894,RU_myo,-0.3379436275970552,-0.3194504148172272,-0.3780427721394545,-0.8005180819149315,23.875,5.8125,-6.875,0.2421875,0.798828125,0.55126953125
1969/12/31/18:00:16.429,58,1731183081,918143868,RU_myo,-0.3362864727101942,-0.3195636971162572,-0.3826708137736693,-0.798970274818358,34.0,8.625,-6.0,0.27001953125,0.75537109375,0.57177734375
1969/12/31/18:00:16.458,59,1731183081,943567607,RU_myo,-0.3340315867956078,-0.3198109838861657,-0.3893271500400478,-0.7965978934508081,42.0,11.8125,-5.75,0.24609375,0.8271484375,0.51318359375
1969/12/31/18:00:16.474,60,1731183081,958491289,RU_myo,-0.3321936171763854,-0.3196821912125495,-0.3964596246881866,-0.7938957509150142,42.0,12.0,-8.125,0.20556640625,0.8359375,0.48388671875
1969/12/31/18:00:16.495,61,1731183081,978140765,RU_myo,-0.3307330177058634,-0.3201134301286683,-0.4028729746957749,-0.7910982423885221,35.6875,7.875,-6.75,0.19775390625,0.85546875,0.41845703125
1969/12/31/18:00:16.520,62,1731183082,623892,RU_myo,-0.3300623584965673,-0.3207244256470897,-0.4075733043713159,-0.7887196484562018,22.875,3.375,-6.125,0.20361328125,0.8935546875,0.3798828125
1969/12/31/18:00:16.539,63,1731183082,18646571,RU_myo,-0.3314548124640033,-0.3214458658162227,-0.411099174508843,-0.7860074626632111,10.875,-3.0625,-14.0,0.23046875,0.9853515625,0.35302734375
1969/12/31/18:00:16.569,64,1731183082,45627092,RU_myo,-0.3350116610852975,-0.3218895063880232,-0.4144159553232229,-0.782568686178846,4.875,-8.4375,-25.6875,0.2373046875,1.03125,0.33544921875
1969/12/31/18:00:16.585,65,1731183082,60650154,RU_myo,-0.3403174685570513,-0.3216415099167253,-0.4159367912869987,-0.7795686918721694,-2.75,-12.5,-32.5,0.2431640625,0.98974609375,0.4033203125
1969/12/31/18:00:16.605,66,1731183082,78563736,RU_myo,-0.3456844978349513,-0.321576910150487,-0.418190356491011,-0.7760201959695279,6.6875,-12.8125,-37.75,0.27587890625,0.98095703125,0.47021484375
1969/12/31/18:00:16.626,67,1731183082,98101237,RU_myo,-0.3516119496656254,-0.3210343439057784,-0.422532464421997,-0.771214823116619,16.0625,-10.875,-46.3125,0.2431640625,1.00390625,0.453125
1969/12/31/18:00:16.651,68,1731183082,120724526,RU_myo,-0.3594791708189512,-0.3193810697615571,-0.427591013710963,-0.7654648150104051,12.8125,-11.875,-58.4375,0.19189453125,1.052734375,0.42236328125
1969/12/31/18:00:16.679,69,1731183082,146222992,RU_myo,-0.368997797762865,-0.3176090869265547,-0.4325318214927927,-0.7588684448202884,11.5625,-16.0625,-69.5625,0.19873046875,1.0263671875,0.4052734375
1969/12/31/18:00:16.691,70,1731183082,158078380,RU_myo,-0.3790630598832985,-0.3157129622888912,-0.4370424362943649,-0.7520840584353385,10.125,-17.9375,-72.625,0.1826171875,0.97705078125,0.3935546875
1969/12/31/18:00:16.716,71,1731183082,180775399,RU_myo,-0.38997536820197,-0.3133839617710667,-0.4410566488256083,-0.7451031722031067,5.375,-20.125,-76.25,0.146484375,0.966796875,0.3759765625
1969/12/31/18:00:16.736,72,1731183082,198594839,RU_myo,-0.4013490802457002,-0.3107159622157634,-0.4448651833806127,-0.7378817488093851,9.0,-21.625,-79.25,0.12255859375,0.95458984375,0.447265625
1969/12/31/18:00:16.760,73,1731183082,221023679,RU_myo,-0.4125208757511113,-0.3079106107655506,-0.4497509000458558,-0.7298915746571297,17.75,-20.0625,-81.5,0.07666015625,0.9169921875,0.45556640625
1969/12/31/18:00:16.776,74,1731183082,236102282,RU_myo,-0.4239976666058485,-0.3047998196386364,-0.4537818700467084,-0.722083833829537,13.0625,-21.0,-81.6875,0.0556640625,0.89990234375,0.4521484375
1969/12/31/18:00:16.800,75,1731183082,257795752,RU_myo,-0.4352134401291939,-0.3019823449388937,-0.4581001376538675,-0.713820837996221,15.5625,-22.75,-78.9375,-0.0068359375,0.8642578125,0.41845703125
1969/12/31/18:00:16.823,76,1731183082,278666914,RU_myo,-0.4467427503987384,-0.2997204436076782,-0.4620003579943238,-0.7050845622071893,13.9375,-27.5,-78.75,-0.03515625,0.9091796875,0.3974609375
1969/12/31/18:00:16.848,77,1731183082,301350528,RU_myo,-0.4588438537329558,-0.2975954550148832,-0.4652522874443099,-0.6960169337550716,13.4375,-32.0,-80.1875,-0.05859375,0.89404296875,0.42041015625
1969/12/31/18:00:16.865,78,1731183082,317622793,RU_myo,-0.4709884903609481,-0.2958859921303455,-0.4674486001910718,-0.6871048884908064,10.25,-35.875,-78.5625,-0.05810546875,0.81201171875,0.38671875
1969/12/31/18:00:16.888,79,1731183082,338870621,RU_myo,-0.4822042053908466,-0.2958161983963338,-0.4686553718765106,-0.6784791990039287,10.3125,-40.9375,-69.5625,-0.04345703125,0.79443359375,0.36328125
1969/12/31/18:00:16.906,80,1731183082,354508419,RU_myo,-0.4923980405942521,-0.2967326813794316,-0.4693283257523301,-0.6702423502486462,10.75,-43.0625,-61.3125,-0.056640625,0.806640625,0.34912109375
1969/12/31/18:00:16.931,81,1731183082,377671072,RU_myo,-0.5016080012528151,-0.2981329950261591,-0.469445035361559,-0.6626669518923308,14.0625,-42.0625,-53.625,-0.05419921875,0.7529296875,0.38330078125
1969/12/31/18:00:16.954,82,1731183082,398648242,RU_myo,-0.509131045118767,-0.3008279694785906,-0.4705586619354703,-0.6548760625898309,26.0,-39.5625,-47.0625,-0.0439453125,0.7275390625,0.39208984375
1969/12/31/18:00:16.971,83,1731183082,414488819,RU_myo,-0.514993155941597,-0.3044916870102663,-0.4724534273695073,-0.6471897873435286,35.75,-35.8125,-39.3125,-0.0478515625,0.7353515625,0.40234375
1969/12/31/18:00:17.003,84,1731183082,443762307,RU_myo,-0.5190787172799807,-0.3095552326918356,-0.4745862557988395,-0.6399224398213519,40.0625,-35.3125,-28.0,-0.06103515625,0.76904296875,0.37060546875
1969/12/31/18:00:17.019,85,1731183082,458720414,RU_myo,-0.5221914947769629,-0.3155364689103433,-0.476234248918261,-0.6332090647862307,39.5625,-37.3125,-18.5,-0.07958984375,0.802734375,0.34375
1969/12/31/18:00:17.036,86,1731183082,474563664,RU_myo,-0.5247456496555628,-0.3216340513706461,-0.4767141509024891,-0.6276441336424526,35.125,-36.1875,-11.875,-0.0517578125,0.75634765625,0.34228515625
1969/12/31/18:00:17.062,87,1731183082,497700950,RU_myo,-0.5260848386563096,-0.3274908635997398,-0.47622273735907,-0.6238560580910437,27.1875,-32.125,-2.1875,-0.03662109375,0.78857421875,0.3330078125
1969/12/31/18:00:17.084,88,1731183082,518704513,RU_myo,-0.5265836221299158,-0.3336006117944042,-0.4755609160450051,-0.6206948814396435,27.0625,-29.625,3.375,-0.0283203125,0.873046875,0.3515625
1969/12/31/18:00:17.102,89,1731183082,534597370,RU_myo,-0.5271490170996352,-0.3385545441532565,-0.4741106361965921,-0.6186386983121341,17.875,-25.8125,4.0,-0.01416015625,0.873046875,0.34912109375
1969/12/31/18:00:17.127,90,1731183082,557593384,RU_myo,-0.5278635096017834,-0.3420828964409754,-0.4707988337458847,-0.6186177053212715,0.1875,-24.0625,12.5625,-0.0478515625,0.7734375,0.30517578125
1969/12/31/18:00:17.151,91,1731183082,580217505,RU_myo,-0.5267005635082996,-0.3476956095372865,-0.4677442779522142,-0.6187968729328679,8.125,-24.875,23.0625,-0.02099609375,0.87841796875,0.302734375
1969/12/31/18:00:17.167,92,1731183082,594424938,RU_myo,-0.5255593766050316,-0.3524684008702888,-0.4655024231060941,-0.6187575148091755,12.1875,-19.3125,17.6875,0.00146484375,0.93896484375,0.365234375
1969/12/31/18:00:17.192,93,1731183082,617851078,RU_myo,-0.5248670276561779,-0.3553227715132869,-0.4626763879838935,-0.6198313410321096,-0.25,-13.4375,15.9375,0.00048828125,0.896484375,0.34228515625
1969/12/31/18:00:17.217,94,1731183082,640308060,RU_myo,-0.523597251058103,-0.3588707117638006,-0.46012351972573,-0.6207608859438123,0.5625,-13.9375,18.1875,0.01953125,0.9453125,0.30224609375
1969/12/31/18:00:17.240,95,1731183082,661361946,RU_myo,-0.522371599719249,-0.3617968037312428,-0.4574947437195338,-0.6220366099238912,0.75,-11.875,20.25,-0.0107421875,0.94287109375,0.35205078125
1969/12/31/18:00:17.258,96,1731183082,677819416,RU_myo,-0.5210923183276686,-0.3645449071645776,-0.454933490374144,-0.6233821667133763,1.0625,-10.8125,19.8125,0.00048828125,0.9150390625,0.35009765625
1969/12/31/18:00:17.283,97,1731183082,700327297,RU_myo,-0.5196694914979854,-0.3674609522383288,-0.4529027946455137,-0.624335748446787,7.3125,-9.4375,15.6875,0.0458984375,0.8720703125,0.3740234375
1969/12/31/18:00:17.306,98,1731183082,721255766,RU_myo,-0.5171019383249441,-0.3714248078184362,-0.4514343252436694,-0.6251849706362241,14.375,-8.25,19.5625,0.0810546875,0.87109375,0.36181640625
1969/12/31/18:00:17.323,99,1731183082,737698603,RU_myo,-0.5141989907709765,-0.374800712442085,-0.4496265833839506,-0.6268650248318931,5.8125,-5.1875,24.1875,0.064453125,0.99169921875,0.3369140625
1969/12/31/18:00:17.348,100,1731183082,760420901,RU_myo,-0.5120407775012421,-0.3760661824746905,-0.4472270342704531,-0.6295843457333508,-5.9375,-0.125,23.5625,0.025390625,1.00732421875,0.353515625
1969/12/31/18:00:17.372,101,1731183082,782667845,RU_myo,-0.511124588588845,-0.3759435779948997,-0.4442359260105316,-0.6325128640160942,-17.0625,0.5,17.875,0.0224609375,0.98779296875,0.3330078125
1969/12/31/18:00:17.389,102,1731183082,797579445,RU_myo,-0.510952026349051,-0.3756461684398481,-0.4414376500934885,-0.6347840451572478,-15.8125,-1.875,12.5625,0.0234375,0.9404296875,0.33544921875
1969/12/31/18:00:17.413,103,1731183082,820223627,RU_myo,-0.5107180767602746,-0.3763860396009337,-0.4389441214220715,-0.6362614663271824,-12.125,-6.125,12.0,0.03369140625,0.93017578125,0.29833984375
1969/12/31/18:00:17.437,104,1731183082,841396698,RU_myo,-0.5103915076306607,-0.3775908475081786,-0.4367286414689714,-0.6373333151006804,-9.25,-7.6875,12.25,0.037109375,0.9609375,0.30078125
1969/12/31/18:00:17.454,105,1731183082,857819892,RU_myo,-0.5096749465035805,-0.3793724664670406,-0.435277418089275,-0.6378413203100132,-1.4375,-7.75,11.0,0.05126953125,1.01123046875,0.32958984375
1969/12/31/18:00:17.479,106,1731183082,880286951,RU_myo,-0.5099799506686826,-0.3804709205922172,-0.4336904654681257,-0.6380242226292973,-5.1875,-8.75,5.5625,0.04541015625,1.0048828125,0.33837890625
1969/12/31/18:00:17.494,107,1731183082,894573072,RU_myo,-0.5112030340399737,-0.3820595741511742,-0.4319226208095623,-0.6372948998860322,-4.6875,-15.6875,1.75,0.041015625,0.9580078125,0.30859375
1969/12/31/18:00:17.519,108,1731183082,918221847,RU_myo,-0.512057622470174,-0.3835244457214032,-0.429786624247314,-0.6371730129426241,-4.6875,-13.3125,2.625,0.07568359375,0.91943359375,0.33740234375
1969/12/31/18:00:17.552,109,1731183082,947807058,RU_myo,-0.5119922671582552,-0.3849859603330878,-0.4287454615313795,-0.6370455697458419,0.8125,-7.8125,2.9375,0.09326171875,0.9599609375,0.33984375
1969/12/31/18:00:17.560,110,1731183082,954653707,RU_myo,-0.512481147202223,-0.3857188103272656,-0.4281356731717988,-0.6366191314119791,-2.0625,-6.6875,0.8125,0.04345703125,0.96435546875,0.3203125
1969/12/31/18:00:17.585,111,1731183082,977763011,RU_myo,-0.5133557126037397,-0.3869546091912625,-0.4269317809610223,-0.6359727173143463,-2.875,-11.8125,1.375,0.0380859375,0.88818359375,0.28662109375
1969/12/31/18:00:17.609,112,1731183083,156407,RU_myo,-0.5137578562213454,-0.3890717906166639,-0.4253851577408858,-0.6353923783702099,0.0,-13.9375,3.8125,0.0771484375,0.85302734375,0.2890625
1969/12/31/18:00:17.625,113,1731183083,14523183,RU_myo,-0.5131457814472392,-0.3911454939694762,-0.4240410192073523,-0.6355122528794127,3.1875,-9.1875,9.0,0.083984375,0.89599609375,0.33251953125
1969/12/31/18:00:17.650,114,1731183083,37856761,RU_myo,-0.512303171727641,-0.392741352164328,-0.4235625460793219,-0.635526915320458,7.25,-5.6875,9.0,0.04833984375,0.94873046875,0.37353515625
1969/12/31/18:00:17.675,115,1731183083,60391435,RU_myo,-0.5119440989621021,-0.3938454066049648,-0.4231412062594485,-0.6354136879225614,4.0625,-5.875,7.75,0.0205078125,0.9296875,0.345703125
1969/12/31/18:00:17.698,116,1731183083,81349409,RU_myo,-0.5119569001823084,-0.3947707713852135,-0.4216869603432963,-0.6357957831663218,-4.625,-7.375,7.9375,0.044921875,0.904296875,0.30322265625
1969/12/31/18:00:17.716,117,1731183083,97913003,RU_myo,-0.5120542684112331,-0.3954841071876985,-0.4196525804047246,-0.6366195558757537,-5.9375,-7.0,8.125,0.0693359375,0.89013671875,0.34228515625
1969/12/31/18:00:17.741,118,1731183083,120953960,RU_myo,-0.5113198782431199,-0.3969473010376285,-0.4186133975733539,-0.6369832381503273,-2.25,-4.375,7.0,0.12890625,1.05078125,0.32080078125
1969/12/31/18:00:17.762,119,1731183083,141153586,RU_myo,-0.5125283704297622,-0.3948018609561957,-0.4189086371314465,-0.6371512487838434,-10.125,5.625,-8.5625,0.08544921875,1.28662109375,0.4365234375
1969/12/31/18:00:17.781,120,1731183083,157931861,RU_myo,-0.516690869505923,-0.3888913560703687,-0.4153789343086831,-0.6397299426129323,-34.5625,4.9375,-10.3125,0.005859375,0.8505859375,0.49072265625
1969/12/31/18:00:17.814,121,1731183083,187742986,RU_myo,-0.5196964495269318,-0.3882922856007446,-0.4114848458849764,-0.6401756968981782,-31.625,-14.25,-4.4375,0.08935546875,0.841796875,0.21044921875
1969/12/31/18:00:17.828,122,1731183083,201289368,RU_myo,-0.5211941651657385,-0.3880272250730404,-0.4095097012016516,-0.6403852898224934,-16.0625,-7.0,-2.9375,0.09716796875,0.91796875,0.29248046875
1969/12/31/18:00:17.845,123,1731183083,216905250,RU_myo,-0.5217051309484868,-0.3876169029777538,-0.4089172177532594,-0.640596286199733,-3.75,-1.1875,-0.875,0.06494140625,0.8916015625,0.3720703125
1969/12/31/18:00:17.870,124,1731183083,240240410,RU_myo,-0.5215681551876259,-0.3884602513186565,-0.4099430491920527,-0.6395404514639752,8.9375,-1.875,-3.5,0.07568359375,0.83251953125,0.3212890625
1969/12/31/18:00:17.893,125,1731183083,261210932,RU_myo,-0.5202384372785466,-0.3901177957630771,-0.4111739033253834,-0.6388239937816221,15.0,0.5,0.125,0.123046875,0.892578125,0.3583984375
1969/12/31/18:00:17.912,126,1731183083,277860678,RU_myo,-0.5187041465104751,-0.3908437880048338,-0.4128150190606958,-0.6385694181596777,14.5,6.0625,0.0,0.1123046875,0.9931640625,0.40966796875
1969/12/31/18:00:17.936,127,1731183083,300290083,RU_myo,-0.517974522445021,-0.3906627687251772,-0.4146481566503444,-0.6380845566351708,9.875,6.5,-2.5,0.0615234375,0.95849609375,0.37744140625
1969/12/31/18:00:17.960,128,1731183083,321330950,RU_myo,-0.5179121125526177,-0.3904786349412736,-0.4157456175711091,-0.637533576210776,2.875,3.25,-5.5,0.0849609375,0.9228515625,0.31005859375
1969/12/31/18:00:17.977,129,1731183083,337816343,RU_myo,-0.5178514602239704,-0.3906009835513742,-0.4161731416932533,-0.6372288858218592,-0.3125,1.5625,-4.4375,0.11328125,0.9482421875,0.306640625
1969/12/31/18:00:18.002,130,1731183083,360317802,RU_myo,-0.5175909097909445,-0.3908327067917944,-0.416404053472894,-0.6371476356818135,0.875,1.0,-0.6875,0.08642578125,0.931640625,0.32666015625
1969/12/31/18:00:18.025,131,1731183083,381329992,RU_myo,-0.5174312309240369,-0.3907893573492106,-0.4169721832593795,-0.6369323337960897,0.375,1.25,0.0625,0.04248046875,0.908203125,0.29736328125
1969/12/31/18:00:18.043,132,1731183083,397741925,RU_myo,-0.5170125695950462,-0.3910399638053902,-0.4180776887883445,-0.6363935855468712,3.9375,1.875,-0.9375,0.048828125,0.9443359375,0.30224609375
1969/12/31/18:00:18.068,133,1731183083,420358609,RU_myo,-0.5161344487497951,-0.3916933773295713,-0.4197063502485918,-0.63563205436078,10.4375,3.875,-3.5,0.09912109375,0.95068359375,0.32861328125
1969/12/31/18:00:18.091,134,1731183083,441537403,RU_myo,-0.5151646968544175,-0.3915764358509587,-0.4211765872517871,-0.6355183021377857,7.25,7.875,-3.0625,0.10498046875,0.91259765625,0.328125
1969/12/31/18:00:18.117,135,1731183083,465237952,RU_myo,-0.5144928539952314,-0.3908436817301852,-0.4214813344829262,-0.6363110908368068,-3.6875,7.4375,0.4375,0.087890625,0.90771484375,0.2939453125
1969/12/31/18:00:18.133,136,1731183083,480347130,RU_myo,-0.5150447676897424,-0.3898691759689625,-0.4206900798300029,-0.636985690292433,-14.375,2.375,-1.375,0.0732421875,0.92822265625,0.25244140625
1969/12/31/18:00:18.156,137,1731183083,501300243,RU_myo,-0.5169972949887917,-0.3886481849236955,-0.4183094628560002,-0.6377174755445502,-26.5,-5.125,-3.0,0.06884765625,0.88623046875,0.205078125
1969/12/31/18:00:18.172,138,1731183083,517186583,RU_myo,-0.5207193368632898,-0.3884644373106937,-0.4131821273516727,-0.6381436223912983,-39.1875,-21.625,-1.5625,0.06005859375,0.845703125,0.16259765625
1969/12/31/18:00:18.198,139,1731183083,540318045,RU_myo,-0.5258454556974614,-0.3902339651496713,-0.4056138461658924,-0.6377157807083071,-43.875,-40.75,-0.25,0.08349609375,0.87158203125,0.1748046875
1969/12/31/18:00:18.222,140,1731183083,562830984,RU_myo,-0.5332993599640473,-0.3939628483140221,-0.3954886533036194,-0.6355893264666501,-64.375,-64.5625,-1.8125,0.07177734375,1.0029296875,-0.0029296875
1969/12/31/18:00:18.245,141,1731183083,583796323,RU_myo,-0.5474498007119042,-0.3922474770541146,-0.3743653375213847,-0.6374097791120543,-127.6875,-85.625,-1.75,0.06591796875,1.03857421875,-0.1240234375
1969/12/31/18:00:18.272,142,1731183083,607732074,RU_myo,-0.5674045121968977,-0.3862647260077622,-0.3439092638732406,-0.6407636843664869,-191.125,-108.0,-6.3125,0.06982421875,0.96044921875,-0.0849609375
1969/12/31/18:00:18.288,143,1731183083,622673249,RU_myo,-0.5910370899776981,-0.3774239327160352,-0.3065043645051631,-0.6436469589947134,-230.3125,-128.8125,-12.5,0.1181640625,0.771484375,0.06591796875
1969/12/31/18:00:18.311,144,1731183083,643805459,RU_myo,-0.6156314692775283,-0.3679629352903954,-0.2657340554410983,-0.6441945234682573,-239.375,-144.125,-18.5625,0.189453125,0.54443359375,0.2265625
1969/12/31/18:00:18.329,145,1731183083,660303068,RU_myo,-0.6385667066323736,-0.3616693399124004,-0.2263637498709236,-0.6404586657173018,-210.375,-156.5625,-27.3125,0.29931640625,0.4326171875,0.365234375
1969/12/31/18:00:18.353,146,1731183083,682860311,RU_myo,-0.6573731374319156,-0.361735269293377,-0.1929214081721553,-0.6322890821460074,-149.75,-161.25,-33.0,0.4111328125,0.431640625,0.48779296875
1969/12/31/18:00:18.376,147,1731183083,703824157,RU_myo,-0.6711030234428903,-0.3689968060872785,-0.1661279037660556,-0.6211792081303872,-83.0,-162.3125,-32.25,0.48388671875,0.3857421875,0.611328125
1969/12/31/18:00:18.395,148,1731183083,720281105,RU_myo,-0.6784388307103716,-0.3842004713315751,-0.1439759987086871,-0.6094109144155326,-20.5625,-168.375,-14.75,0.5068359375,0.29638671875,0.61865234375
1969/12/31/18:00:18.419,149,1731183083,742818889,RU_myo,-0.6788622761928742,-0.4064751199716391,-0.1251772479071819,-0.598543769003283,32.25,-172.3125,11.125,0.546875,0.30859375,0.54931640625
1969/12/31/18:00:18.442,150,1731183083,763831447,RU_myo,-0.6732945832273327,-0.4333815115570422,-0.109184554876151,-0.5890106982167321,72.0,-169.75,33.6875,0.583984375,0.3955078125,0.5029296875
1969/12/31/18:00:18.460,151,1731183083,780483659,RU_myo,-0.6634797787844595,-0.462318031854685,-0.0942945688733317,-0.5806592415928018,92.5625,-167.25,52.0,0.64208984375,0.501953125,0.501953125
1969/12/31/18:00:18.484,152,1731183083,803025632,RU_myo,-0.6511450984880414,-0.4905101843235906,-0.077021755955751,-0.574001279527606,86.4375,-168.5,73.0625,0.68017578125,0.63037109375,0.4599609375
1969/12/31/18:00:18.507,153,1731183083,823948138,RU_myo,-0.639389040924793,-0.5163451017777538,-0.0573106442753322,-0.5668199716560283,66.6875,-172.25,78.125,0.65966796875,0.87890625,0.46826171875
1969/12/31/18:00:18.526,154,1731183083,840254803,RU_myo,-0.6305876821229347,-0.5380624279515865,-0.0344833566007992,-0.5582641819955946,34.0625,-176.8125,72.375,0.61669921875,0.84326171875,0.47998046875
1969/12/31/18:00:18.550,155,1731183083,862796840,RU_myo,-0.6223649218527477,-0.5583401299508617,-0.007140992042441,-0.5485136366275026,14.0625,-192.125,77.6875,0.70654296875,0.65087890625,0.42578125
1969/12/31/18:00:18.575,156,1731183083,885385653,RU_myo,-0.6097060415114568,-0.5805939512410899,0.0219713888832957,-0.5391534705417628,31.9375,-203.875,95.25,0.88427734375,0.44580078125,0.48876953125
1969/12/31/18:00:18.591,157,1731183083,900368476,RU_myo,-0.5891448298701757,-0.6063559395794256,0.0468728094209359,-0.53201859338841,84.4375,-193.4375,111.25,1.05712890625,0.40283203125,0.43798828125
1969/12/31/18:00:18.615,158,1731183083,922782670,RU_myo,-0.5573641093277449,-0.6398212831890878,0.0638417497105586,-0.525260131939835,172.875,-192.9375,118.5,1.056640625,0.494140625,0.37548828125
1969/12/31/18:00:18.638,159,1731183083,943973913,RU_myo,-0.5193281774108085,-0.6743515139513484,0.0760468808383908,-0.5193892102204701,213.6875,-181.75,127.0,0.89990234375,0.6298828125,0.32861328125
1969/12/31/18:00:18.656,160,1731183083,960401274,RU_myo,-0.4796095472411751,-0.7061087874819489,0.0853263103898145,-0.5139109681561077,220.1875,-163.4375,125.0,0.84619140625,0.69287109375,0.16455078125
1969/12/31/18:00:18.680,161,1731183083,982706822,RU_myo,-0.4431458859071144,-0.729259081490719,0.0920957363770604,-0.513148410509161,194.375,-112.125,125.125,0.921875,0.87890625,0.20703125
1969/12/31/18:00:18.703,162,1731183084,3847891,RU_myo,-0.4156887180538973,-0.7416604465997593,0.1005196474283906,-0.5167576531731535,126.5,-61.375,122.625,1.1357421875,0.97314453125,0.10302734375
1969/12/31/18:00:18.721,163,1731183084,20144056,RU_myo,-0.3931132671433777,-0.7533908041636166,0.1189532305018542,-0.5135312885800932,71.6875,-111.4375,136.4375,1.1015625,0.97216796875,0.197265625
1969/12/31/18:00:18.746,164,1731183084,42938030,RU_myo,-0.3801052018292382,-0.7595390553572365,0.1404338582866212,-0.508820980676037,8.125,-102.375,122.9375,0.97705078125,0.9169921875,0.22998046875
1969/12/31/18:00:18.770,165,1731183084,65184117,RU_myo,-0.3812801939311019,-0.7596307497465175,0.1629611201850555,-0.5010291519097833,-66.625,-95.4375,94.125,0.9111328125,0.6884765625,0.0029296875
1969/12/31/18:00:18.795,166,1731183084,87689325,RU_myo,-0.3876858860439981,-0.7567565020559717,0.1829179156917289,-0.4935182737014749,-88.75,-76.375,68.4375,0.9560546875,0.6494140625,0.00244140625
1969/12/31/18:00:18.812,167,1731183084,103340877,RU_myo,-0.3952362057744056,-0.7517788114158631,0.1962143918413703,-0.4900172168256181,-74.0625,-41.6875,43.3125,1.02001953125,0.6083984375,0.0654296875
1969/12/31/18:00:18.834,168,1731183084,123867679,RU_myo,-0.4019046596403676,-0.7463158964437989,0.2056824150323521,-0.4890602942594177,-60.125,-20.375,29.9375,0.98046875,0.49755859375,0.06103515625
1969/12/31/18:00:18.853,169,1731183084,140282104,RU_myo,-0.4048773213809009,-0.7433532973197728,0.2095792465514039,-0.4894658000414267,-25.3125,-1.25,22.125,0.931640625,0.556640625,-0.107421875
1969/12/31/18:00:18.877,170,1731183084,162820522,RU_myo,-0.4041608433471258,-0.743443556751939,0.2078785612262625,-0.490644672254235,12.75,5.9375,9.375,1.04736328125,0.64990234375,-0.19482421875
1969/12/31/18:00:18.899,171,1731183084,183817117,RU_myo,-0.4032454723028191,-0.7418569268716159,0.2063527988278843,-0.494428874091893,14.5625,9.625,4.4375,1.28369140625,0.52880859375,-0.0556640625
1969/12/31/18:00:18.917,172,1731183084,199775307,RU_myo,-0.4006084468271706,-0.7390871863310536,0.2048205282681268,-0.5013098388541102,21.4375,25.1875,15.0,1.16064453125,0.41748046875,-0.03466796875
1969/12/31/18:00:18.942,173,1731183084,222707734,RU_myo,-0.3963274136427986,-0.7385214093765794,0.203961536247957,-0.5058758749130209,24.25,19.0,20.375,0.91455078125,0.392578125,-0.19384765625
1969/12/31/18:00:18.965,174,1731183084,243810064,RU_myo,-0.3906118850193247,-0.7404536545397574,0.2036674781733572,-0.5076123512040194,29.125,0.5625,16.375,0.8466796875,0.33740234375,-0.244140625
1969/12/31/18:00:18.983,175,1731183084,260983294,RU_myo,-0.3813231875306718,-0.742078847180768,0.2043936227657202,-0.5119910723743287,44.9375,-0.9375,27.8125,0.9208984375,0.1982421875,-0.1494140625
1969/12/31/18:00:19.007,176,1731183084,282698495,RU_myo,-0.3712555448989988,-0.7429993430216031,0.2020147712667575,-0.5189521450396494,61.375,12.6875,25.5625,0.88623046875,0.20654296875,-0.05615234375
1969/12/31/18:00:19.032,177,1731183084,305309258,RU_myo,-0.3633866868476378,-0.7442896617579684,0.1963411104448859,-0.524817285892314,61.8125,20.375,12.625,0.77978515625,0.322265625,-0.1044921875
1969/12/31/18:00:19.048,178,1731183084,319711459,RU_myo,-0.3577741063412768,-0.7458815001017988,0.1910325746926299,-0.5283607025923633,46.625,18.375,5.1875,0.76318359375,0.35498046875,-0.20556640625
1969/12/31/18:00:19.073,179,1731183084,342951534,RU_myo,-0.353811404526195,-0.747050472899884,0.1871898529725444,-0.5307476235569764,32.1875,17.0,3.0625,0.81591796875,0.35205078125,-0.265625
1969/12/31/18:00:19.096,180,1731183084,363912478,RU_myo,-0.3515970755485378,-0.7474413095370496,0.1841292096736571,-0.5327357876172863,19.3125,18.375,-1.25,0.916015625,0.3466796875,-0.296875
1969/12/31/18:00:19.131,181,1731183084,395371764,RU_myo,-0.3511887213987425,-0.7471762821278077,0.1818198124864188,-0.5341681768651015,6.8125,18.8125,-6.5,0.9794921875,0.3349609375,-0.31005859375
1969/12/31/18:00:19.138,182,1731183084,402722452,RU_myo,-0.3516069732991302,-0.7464248018483531,0.1812658758372534,-0.535131043549171,-3.5625,14.125,-5.1875,0.994140625,0.29296875,-0.28955078125
1969/12/31/18:00:19.161,183,1731183084,423811441,RU_myo,-0.3518571596301838,-0.74546111842551,0.1825506963493287,-0.5358726559502193,-8.8125,7.9375,0.875,1.0146484375,0.26025390625,-0.2578125
1969/12/31/18:00:19.178,184,1731183084,439584200,RU_myo,-0.3525229617615291,-0.7443507689826192,0.184378785921326,-0.5363524563643209,-12.9375,6.4375,2.0,0.99755859375,0.26513671875,-0.25
1969/12/31/18:00:19.204,185,1731183084,462761337,RU_myo,-0.3532477921374245,-0.7436635015885483,0.1861447418830588,-0.5362189187490345,-12.8125,4.3125,2.125,0.95458984375,0.27587890625,-0.267578125
1969/12/31/18:00:19.229,186,1731183084,485332482,RU_myo,-0.3536852551734473,-0.7433188477579663,0.1880421520602918,-0.5357461898037136,-11.125,1.3125,3.25,0.935546875,0.2861328125,-0.263671875
1969/12/31/18:00:19.245,187,1731183084,500400359,RU_myo,-0.3535029915334628,-0.7430764713259513,0.1895073875537641,-0.5356864220803182,-6.3125,1.5625,5.0,0.92431640625,0.2861328125,-0.2392578125
1969/12/31/18:00:19.277,188,1731183084,530215307,RU_myo,-0.353140853868105,-0.7423526107151334,0.1910964420084751,-0.5363639515715359,-5.3125,3.9375,8.25,0.91845703125,0.29443359375,-0.21142578125
1969/12/31/18:00:19.294,189,1731183084,545219205,RU_myo,-0.3536744207169642,-0.7410379320699533,0.1930409305828745,-0.5371334903761867,-10.5,5.5,9.75,0.93310546875,0.31591796875,-0.197265625
1969/12/31/18:00:19.316,190,1731183084,566338332,RU_myo,-0.3552716958800917,-0.7391677561937452,0.1951827664360991,-0.5378817137590187,-17.125,8.75,8.8125,0.89697265625,0.32080078125,-0.20166015625
1969/12/31/18:00:19.334,191,1731183084,582987978,RU_myo,-0.3574743561109402,-0.7369208426982231,0.1979322753743861,-0.5385002977576961,-22.625,9.625,9.5625,0.876953125,0.30908203125,-0.2021484375
1969/12/31/18:00:19.359,192,1731183084,605268726,RU_myo,-0.3600943254792289,-0.733982094612408,0.2011035258396711,-0.5395921917901463,-26.4375,12.25,10.8125,0.89208984375,0.294921875,-0.1845703125
1969/12/31/18:00:19.382,193,1731183084,626324321,RU_myo,-0.3624713971860718,-0.7306798395540751,0.2040923307274329,-0.541357348550338,-24.6875,15.125,10.8125,0.93603515625,0.27880859375,-0.16796875
1969/12/31/18:00:19.400,194,1731183084,642957761,RU_myo,-0.3646723173487358,-0.7273915779351018,0.2065357526206062,-0.5433770111055723,-21.375,15.875,9.0,0.9384765625,0.27197265625,-0.134765625
1969/12/31/18:00:19.425,195,1731183084,665340948,RU_myo,-0.3667445296210189,-0.7241510807045082,0.2083040571803191,-0.5456309027811465,-17.9375,16.1875,8.5,0.9375,0.28564453125,-0.10302734375
1969/12/31/18:00:19.425,1,1731183090,801175702,RU_myo,-0.4298903864255906,-0.3428015758876409,-0.3634294791545133,-0.7520640590463591,72.9375,77.375,35.6875,0.16748046875,1.15234375,-0.1025390625
1969/12/31/18:00:19.450,2,1731183090,823674597,RU_myo,-0.4225246861641883,-0.3389718484697244,-0.3678399947293894,-0.7558205566166848,-7.9375,54.625,26.125,0.22119140625,1.041015625,0.2109375
1969/12/31/18:00:19.471,3,1731183090,843194546,RU_myo,-0.4181465880804441,-0.3339801678552314,-0.3633377081948451,-0.762624670568552,-52.0,40.125,27.875,0.31201171875,0.865234375,0.2861328125
1969/12/31/18:00:19.490,4,1731183090,861186061,RU_myo,-0.4175901368710075,-0.3270776883209192,-0.3546037262818698,-0.7699966627834888,-81.5,29.625,19.0625,0.27490234375,0.8603515625,0.3486328125
1969/12/31/18:00:19.513,5,1731183090,882115154,RU_myo,-0.4175929120035925,-0.321037520774466,-0.344108277970806,-0.7772647960195486,-69.25,16.75,20.125,0.25634765625,0.65869140625,0.56494140625
1969/12/31/18:00:19.536,6,1731183090,903247060,RU_myo,-0.4133092142201882,-0.3209066521514692,-0.338056665322744,-0.7822481096662954,-21.0625,7.6875,33.125,0.30322265625,0.51708984375,0.5146484375
1969/12/31/18:00:19.556,7,1731183090,921021879,RU_myo,-0.4082951798846252,-0.3255375918541989,-0.3379268177909073,-0.7830234914678239,13.6875,-7.0,30.9375,0.2783203125,0.8115234375,0.49365234375
1969/12/31/18:00:19.579,8,1731183090,942119677,RU_myo,-0.4042240138096539,-0.3295191681350327,-0.3391624406976063,-0.782936078687942,18.875,-4.9375,21.75,0.3125,0.92822265625,0.58056640625
1969/12/31/18:00:19.603,9,1731183090,963339156,RU_myo,-0.4008557562256361,-0.331645886012501,-0.3381762705916945,-0.784195434187454,5.875,1.3125,16.8125,0.36279296875,0.75,0.5458984375
1969/12/31/18:00:19.621,10,1731183090,981217164,RU_myo,-0.3961508343272076,-0.3338994322298803,-0.3371340639074864,-0.7860765284446825,9.3125,5.8125,22.0,0.40771484375,0.724609375,0.568359375
1969/12/31/18:00:19.644,11,1731183091,2187324,RU_myo,-0.3920137744232239,-0.3361687481742358,-0.3392203889528691,-0.7862857630226363,17.0625,7.5,15.3125,0.423828125,1.0537109375,0.63037109375
1969/12/31/18:00:19.667,12,1731183091,23224608,RU_myo,-0.3907921915580991,-0.3333604482727373,-0.3374496372207918,-0.7888472709493097,-14.625,15.25,9.3125,0.30712890625,0.94140625,0.69189453125
1969/12/31/18:00:19.686,13,1731183091,41096091,RU_myo,-0.3891915082816556,-0.329015433769234,-0.3347523009134202,-0.792603123420709,-16.25,23.125,8.625,0.302734375,0.70263671875,0.67626953125
1969/12/31/18:00:19.709,14,1731183091,62148302,RU_myo,-0.3855994850023404,-0.3267037105440848,-0.3379335784200631,-0.7939638652097889,17.3125,26.5625,8.0625,0.2392578125,0.68505859375,0.55615234375
1969/12/31/18:00:19.732,15,1731183091,83215294,RU_myo,-0.3815122533084443,-0.3256677945374914,-0.345625322426127,-0.7930523467429091,41.875,24.6875,4.4375,0.15234375,0.734375,0.5048828125
1969/12/31/18:00:19.752,16,1731183091,100376435,RU_myo,-0.3773538567185509,-0.3265761745594316,-0.3541621268862608,-0.7908990181490702,51.875,17.25,2.625,0.1796875,0.73095703125,0.4638671875
1969/12/31/18:00:19.776,17,1731183091,122850218,RU_myo,-0.3721193221101189,-0.3292129938431985,-0.3625371122411196,-0.7884877025324957,57.5625,13.1875,6.875,0.23388671875,0.69970703125,0.43505859375
1969/12/31/18:00:19.799,18,1731183091,143829814,RU_myo,-0.3664926985940082,-0.33225416338814,-0.3698494177318384,-0.7864487783650941,53.8125,10.5625,12.6875,0.244140625,0.74169921875,0.4404296875
1969/12/31/18:00:19.816,19,1731183091,160205509,RU_myo,-0.3616047147991195,-0.3349344598848216,-0.3767402370388126,-0.7843007915415164,44.4375,9.5625,11.5625,0.2412109375,0.87451171875,0.41748046875
1969/12/31/18:00:19.841,20,1731183091,182931968,RU_myo,-0.359168602586218,-0.3357936535988737,-0.3821773643831601,-0.7824199634928318,29.9375,8.4375,1.75,0.22119140625,0.93798828125,0.45751953125
1969/12/31/18:00:19.864,21,1731183091,203881437,RU_myo,-0.3585071566354101,-0.3355587925062112,-0.3840799347474695,-0.7818922682424648,10.5625,4.75,-0.6875,0.228515625,0.85693359375,0.48681640625
1969/12/31/18:00:19.883,22,1731183091,220361144,RU_myo,-0.3581985157324623,-0.3362879232724258,-0.3853578852163515,-0.7810912598984585,2.8125,-0.8125,0.6875,0.23583984375,0.916015625,0.40869140625
1969/12/31/18:00:19.907,23,1731183091,242807084,RU_myo,-0.3595379650565867,-0.3365900317920686,-0.3862088343028486,-0.7799245723065901,-3.5625,-3.875,-6.6875,0.2392578125,0.95849609375,0.4033203125
1969/12/31/18:00:19.930,24,1731183091,263966430,RU_myo,-0.3620444556459404,-0.3363497968753839,-0.3861522708819732,-0.7788960456765831,-5.625,-6.375,-13.125,0.24365234375,0.88134765625,0.45751953125
1969/12/31/18:00:19.948,25,1731183091,280371041,RU_myo,-0.3638088809981349,-0.3369550129157361,-0.386695700386543,-0.777541544022184,4.625,-6.8125,-13.8125,0.28076171875,0.802734375,0.470703125
1969/12/31/18:00:19.972,26,1731183091,302966652,RU_myo,-0.3647764557869774,-0.337862215030401,-0.3894325856410746,-0.775325429867452,19.6875,-4.0,-14.9375,0.26708984375,0.771484375,0.46826171875
1969/12/31/18:00:19.995,27,1731183091,323921450,RU_myo,-0.3654625066388667,-0.3389133766475662,-0.3943308709742347,-0.7720609066435644,33.0,-2.875,-17.25,0.22265625,0.79833984375,0.4775390625
1969/12/31/18:00:20.013,28,1731183091,340471827,RU_myo,-0.365331126125832,-0.3403694771807158,-0.3998746305339878,-0.7686234885447257,36.625,-3.25,-11.5,0.18359375,0.85791015625,0.46435546875
1969/12/31/18:00:20.037,29,1731183091,362904309,RU_myo,-0.3666750650792265,-0.3418353927278209,-0.4053077741663022,-0.7644760095177083,26.6875,-6.875,-16.8125,0.18603515625,1.05078125,0.41162109375
1969/12/31/18:00:20.060,30,1731183091,383855879,RU_myo,-0.3722993040734398,-0.3406843795635969,-0.4078813523152128,-0.7608943317841924,-4.25,-10.0,-34.125,0.1875,1.1259765625,0.39501953125
1969/12/31/18:00:20.079,31,1731183091,400341748,RU_myo,-0.3812555187766077,-0.33755791169416,-0.4065830424347304,-0.7585440760164012,-30.0,-14.25,-46.8125,0.20166015625,1.021484375,0.421875
1969/12/31/18:00:20.103,32,1731183091,422885120,RU_myo,-0.3907395404720041,-0.3344051768581866,-0.4044111520099187,-0.7562720471709784,-29.5,-17.0,-50.625,0.22314453125,0.93505859375,0.48193359375
1969/12/31/18:00:20.126,33,1731183091,443843670,RU_myo,-0.4001171029403374,-0.3318237780180925,-0.4043892501651427,-0.7525082183121354,-11.9375,-17.0,-57.6875,0.2265625,0.9287109375,0.52978515625
1969/12/31/18:00:20.143,34,1731183091,460280940,RU_myo,-0.4092962794315437,-0.3297685353069833,-0.4076483522700984,-0.7466941071526253,3.6875,-16.1875,-63.0,0.1650390625,0.98486328125,0.478515625
1969/12/31/18:00:20.168,35,1731183091,482996402,RU_myo,-0.4192742288320386,-0.3277296373839952,-0.4126830182477795,-0.7392530908067663,12.1875,-17.625,-71.8125,0.11572265625,0.99169921875,0.44970703125
1969/12/31/18:00:20.191,36,1731183091,503907980,RU_myo,-0.4298934919074364,-0.326264992580516,-0.4175654843314423,-0.7310142314121626,16.75,-22.3125,-78.375,0.13916015625,0.970703125,0.47998046875
1969/12/31/18:00:20.210,37,1731183091,520310206,RU_myo,-0.4405284540397921,-0.3249950149296055,-0.4218526841677809,-0.7227400876612937,17.0625,-24.3125,-78.3125,0.1376953125,0.91455078125,0.47607421875
1969/12/31/18:00:20.234,38,1731183091,543004769,RU_myo,-0.4509701261761409,-0.3236560534730106,-0.4250312570971235,-0.714997297083975,10.0,-25.0,-74.0625,0.11376953125,0.90478515625,0.4462890625
1969/12/31/18:00:20.257,39,1731183091,563863291,RU_myo,-0.4610385021936593,-0.3232274169469976,-0.428630315184812,-0.7065717156335709,13.3125,-28.125,-72.8125,0.09423828125,0.92919921875,0.4033203125
1969/12/31/18:00:20.274,40,1731183091,579652629,RU_myo,-0.4723145992461955,-0.3220576483036793,-0.4297763803969129,-0.6989206345222163,0.3125,-33.0,-73.1875,0.07763671875,0.865234375,0.41455078125
1969/12/31/18:00:20.299,41,1731183091,602900508,RU_myo,-0.4831194205830624,-0.3206555628781468,-0.4289851449315747,-0.69263798688696,-5.1875,-33.4375,-65.4375,0.07666015625,0.783203125,0.46826171875
1969/12/31/18:00:20.322,42,1731183091,623829332,RU_myo,-0.4926967118765897,-0.3193709764957505,-0.4291642856331201,-0.6863455000327174,5.3125,-27.9375,-63.375,0.08447265625,0.82763671875,0.5546875
1969/12/31/18:00:20.347,43,1731183091,646474878,RU_myo,-0.5018026028946108,-0.3176089449602961,-0.4312499625460131,-0.6792217425947609,9.5,-22.625,-64.25,0.0,0.904296875,0.51220703125
1969/12/31/18:00:20.365,44,1731183091,663022038,RU_myo,-0.5119214767626055,-0.3143666579404126,-0.4314226179345324,-0.6730412548567016,-12.75,-24.5,-63.0,-0.060546875,0.87744140625,0.40478515625
1969/12/31/18:00:20.387,45,1731183091,683947116,RU_myo,-0.5224914865739293,-0.3107118512028821,-0.4299065566437049,-0.667563588382857,-18.1875,-26.75,-62.3125,-0.04248046875,0.7705078125,0.43701171875
1969/12/31/18:00:20.405,46,1731183091,699854930,RU_myo,-0.5315225154365071,-0.3091240717287757,-0.4294169730866073,-0.6614583789529066,1.875,-26.5625,-58.25,0.00634765625,0.68212890625,0.48681640625
1969/12/31/18:00:20.430,47,1731183091,722980580,RU_myo,-0.5387150341060445,-0.3098511643997267,-0.4301420143173673,-0.6547947888210889,12.125,-29.25,-48.375,-0.0322265625,0.75390625,0.4189453125
1969/12/31/18:00:20.453,48,1731183091,743887254,RU_myo,-0.5450212361830155,-0.3112052948821048,-0.4307071515950212,-0.6485325482285244,12.0,-28.3125,-44.0,-0.00390625,0.80126953125,0.41162109375
1969/12/31/18:00:20.470,49,1731183091,759820633,RU_myo,-0.5498923459928956,-0.3138841659757449,-0.4319187716527993,-0.6422937901475286,27.6875,-25.125,-41.1875,0.068359375,0.70556640625,0.46728515625
1969/12/31/18:00:20.495,50,1731183091,782796432,RU_myo,-0.5520840225918395,-0.3183363101745561,-0.4345388283057591,-0.6364284974118618,43.6875,-21.375,-24.5,0.01806640625,0.61767578125,0.43408203125
1969/12/31/18:00:20.518,51,1731183091,803690463,RU_myo,-0.5527009650785584,-0.3248704987978319,-0.4373514924638857,-0.6306381484272022,40.6875,-26.875,-10.125,-0.05322265625,0.78076171875,0.2958984375
1969/12/31/18:00:20.536,52,1731183091,819838974,RU_myo,-0.5540500395289899,-0.3308553937306295,-0.4389433668531059,-0.6252135497835396,32.9375,-29.0,-13.0625,-0.02685546875,0.9208984375,0.35009765625
1969/12/31/18:00:20.561,53,1731183091,842812789,RU_myo,-0.5558848249548295,-0.3351299488171902,-0.439007416106729,-0.6212507282844981,28.25,-24.5625,-13.5625,0.017578125,0.78125,0.45751953125
1969/12/31/18:00:20.584,54,1731183091,863860131,RU_myo,-0.5562974701980969,-0.3409191079019824,-0.4374091024585584,-0.6188542345374332,19.875,-29.3125,4.0,0.01416015625,0.744140625,0.33984375
1969/12/31/18:00:20.601,55,1731183091,879804618,RU_myo,-0.5562935871484054,-0.3471418457158672,-0.4338052460176484,-0.6179344563771372,4.75,-33.875,15.6875,0.00927734375,0.89697265625,0.2998046875
1969/12/31/18:00:20.635,56,1731183091,910353209,RU_myo,-0.5568496238745031,-0.3512351584171159,-0.4294162597085712,-0.6181860850750595,0.5,-27.125,12.8125,0.03369140625,0.9287109375,0.45703125
1969/12/31/18:00:20.649,57,1731183091,923931596,RU_myo,-0.5572885329950585,-0.3541720903482998,-0.4255191821313709,-0.6188093786044134,0.6875,-21.6875,13.625,-0.00390625,0.79345703125,0.45068359375
1969/12/31/18:00:20.674,58,1731183091,946466541,RU_myo,-0.556971691670406,-0.3588640748435226,-0.422275600993594,-0.6186133099683581,3.6875,-27.1875,19.4375,-0.0400390625,0.84130859375,0.3369140625
1969/12/31/18:00:20.692,59,1731183091,962912323,RU_myo,-0.5561158727894897,-0.3652104239214559,-0.4198333065099758,-0.6173301199808701,11.9375,-30.875,18.6875,-0.0087890625,0.9619140625,0.33203125
1969/12/31/18:00:20.716,60,1731183091,985225818,RU_myo,-0.555795106696588,-0.3707538457430298,-0.4179296025758466,-0.6156039575325007,18.8125,-27.4375,10.625,0.02978515625,0.8974609375,0.40869140625
1969/12/31/18:00:20.732,61,1731183091,999731496,RU_myo,-0.5549647179382896,-0.3765679434377265,-0.4166660210452769,-0.6136775804321458,21.8125,-26.25,12.25,0.013671875,0.8349609375,0.35498046875
1969/12/31/18:00:20.757,62,1731183092,22876391,RU_myo,-0.5538027794146142,-0.3826695423109578,-0.4150774413487758,-0.6120271403978126,18.8125,-27.0625,16.125,0.0185546875,0.92919921875,0.337890625
1969/12/31/18:00:20.780,63,1731183092,43901254,RU_myo,-0.5529320467290226,-0.3874796429009453,-0.4134174044748785,-0.6109105726001673,18.4375,-21.3125,11.5625,0.0615234375,0.98095703125,0.44384765625
1969/12/31/18:00:20.806,64,1731183092,67840724,RU_myo,-0.5523987213083977,-0.3910917032531447,-0.4117814796892895,-0.6101958253940294,13.875,-17.5,9.75,0.05859375,0.9443359375,0.439453125
1969/12/31/18:00:20.822,65,1731183092,82906173,RU_myo,-0.5525172481213397,-0.3937745813408687,-0.40897139949863,-0.6102529508411881,-0.4375,-18.3125,11.6875,0.033203125,0.9326171875,0.3759765625
1969/12/31/18:00:20.847,66,1731183092,105352524,RU_myo,-0.5529339898645074,-0.3962693594028969,-0.4055459561423456,-0.6105465380358203,-2.8125,-19.125,10.9375,0.06689453125,0.8955078125,0.38671875
1969/12/31/18:00:20.863,67,1731183092,119557625,RU_myo,-0.5528856730301327,-0.3985976741980127,-0.4027478260653324,-0.6109267675275006,1.0,-15.0625,9.875,0.08935546875,0.92724609375,0.4169921875
1969/12/31/18:00:20.888,68,1731183092,142883917,RU_myo,-0.5524024116842264,-0.4001270810962091,-0.4006763708658653,-0.6117257068070934,3.0,-8.8125,10.75,0.07470703125,0.94140625,0.4580078125
1969/12/31/18:00:20.913,69,1731183092,165281449,RU_myo,-0.5518035324097951,-0.4014781148315045,-0.3989147094160403,-0.6125318273713862,1.125,-7.125,11.3125,0.0595703125,0.95263671875,0.421875
1969/12/31/18:00:20.936,70,1731183092,186354151,RU_myo,-0.5514937006935616,-0.4020850487128358,-0.3971413800811206,-0.613564206847319,-5.625,-4.6875,10.0,0.05224609375,0.94677734375,0.37109375
1969/12/31/18:00:20.961,71,1731183092,210194003,RU_myo,-0.5512392364107407,-0.4025047347352563,-0.3956691729019964,-0.6144681833683943,-6.1875,-4.0,9.375,0.03759765625,0.92822265625,0.3515625
1969/12/31/18:00:20.978,72,1731183092,225434965,RU_myo,-0.5508647734027116,-0.4031089993712508,-0.3942595209596185,-0.6153133885936337,-2.125,-4.0625,9.4375,0.04638671875,0.888671875,0.3779296875
1969/12/31/18:00:21.001,73,1731183092,246363895,RU_myo,-0.5494044196572448,-0.4047600656706118,-0.3938354499053767,-0.6158065534705177,11.5,-2.75,9.8125,0.08251953125,0.85302734375,0.41796875
1969/12/31/18:00:21.019,74,1731183092,262896265,RU_myo,-0.5469516683680342,-0.4073758520817483,-0.3950477738614467,-0.6154884596620871,19.0,-0.25,9.75,0.08740234375,0.95068359375,0.36279296875
1969/12/31/18:00:21.044,75,1731183092,285371692,RU_myo,-0.5454981313855446,-0.4086048321354018,-0.3954830936874389,-0.6156841742467414,4.125,0.6875,8.5625,0.05859375,1.00341796875,0.3154296875
1969/12/31/18:00:21.067,76,1731183092,306382583,RU_myo,-0.5456819164844535,-0.4083001925154897,-0.3940188404902843,-0.616661456678103,-10.125,-1.1875,4.4375,0.08349609375,0.9140625,0.32861328125
1969/12/31/18:00:21.084,77,1731183092,322968388,RU_myo,-0.5459964187222022,-0.4086123433204945,-0.393720422219643,-0.6163668491700782,-9.3125,-0.75,-5.6875,0.17333984375,1.21728515625,0.3291015625
1969/12/31/18:00:21.109,78,1731183092,345384001,RU_myo,-0.5492731870470101,-0.403654762125436,-0.3911435395315875,-0.6183595479067007,-31.875,5.6875,-8.875,0.05224609375,1.0146484375,0.47802734375
1969/12/31/18:00:21.132,79,1731183092,366493047,RU_myo,-0.5519533172080737,-0.3996229899467566,-0.3885155702506189,-0.6202456394057556,-29.0,4.6875,-8.6875,0.0859375,0.7587890625,0.3623046875
1969/12/31/18:00:21.149,80,1731183092,382833012,RU_myo,-0.5519533172080737,-0.3996229899467566,-0.3885155702506189,-0.6202456394057556,0.125,1.75,-4.1875,0.1201171875,0.7978515625,0.33251953125
1969/12/31/18:00:21.173,81,1731183092,405176305,RU_myo,-0.549098460013578,-0.40158584715898,-0.3910884663517847,-0.6198947491783829,28.5,7.875,3.6875,0.1240234375,0.89208984375,0.4462890625
1969/12/31/18:00:21.196,82,1731183092,426281747,RU_myo,-0.5456865365852102,-0.4037872862149368,-0.395303847160542,-0.618802795485678,33.8125,11.125,2.125,0.09716796875,0.96142578125,0.396484375
1969/12/31/18:00:21.215,83,1731183092,442639496,RU_myo,-0.543365108802087,-0.4047011160807188,-0.399269295943306,-0.6177017034916233,21.4375,12.125,-3.0,0.0791015625,0.98193359375,0.32666015625
1969/12/31/18:00:21.239,84,1731183092,465175642,RU_myo,-0.5420371295072439,-0.4049562385182483,-0.4015383712451478,-0.6172302095154552,10.0625,9.25,-3.25,0.09375,0.9736328125,0.3203125
1969/12/31/18:00:21.264,85,1731183092,487615592,RU_myo,-0.5414106065105312,-0.4044558775048236,-0.4022587428148924,-0.6176389739473087,-0.3125,7.5,-2.3125,0.107421875,0.92724609375,0.31884765625
1969/12/31/18:00:21.280,86,1731183092,502614634,RU_myo,-0.5413278350020405,-0.4034631699209121,-0.401998472283928,-0.6185296062847442,-8.25,5.875,-0.625,0.08740234375,0.841796875,0.2802734375
1969/12/31/18:00:21.304,87,1731183092,525186105,RU_myo,-0.5415168247111829,-0.4023080027607481,-0.4005381404913212,-0.6200620916336772,-18.125,3.3125,3.8125,0.07080078125,0.8212890625,0.232421875
1969/12/31/18:00:21.328,88,1731183092,546335684,RU_myo,-0.5419542681427908,-0.4016442611089759,-0.3975551917434841,-0.6220267906431671,-27.1875,-2.4375,9.375,0.07470703125,0.87744140625,0.19873046875
1969/12/31/18:00:21.346,89,1731183092,562699620,RU_myo,-0.5438084557505095,-0.4011731739223456,-0.3927505513753679,-0.6237623364500794,-38.25,-12.3125,7.75,0.0859375,0.916015625,0.19384765625
1969/12/31/18:00:21.371,90,1731183092,585430273,RU_myo,-0.5488463660499322,-0.400359408571951,-0.3847966571716694,-0.6248292111218955,-58.0,-29.8125,2.25,0.06982421875,0.91650390625,0.17822265625
1969/12/31/18:00:21.392,91,1731183092,606294361,RU_myo,-0.5568404635521458,-0.4005418634691728,-0.3722238039461352,-0.625255430632588,-90.5,-55.4375,3.8125,0.060546875,1.00390625,0.025390625
