time,.header.seq,.header.stamp.secs,.header.stamp.nsecs,.header.frame_id,.orientation.x,.orientation.y,.orientation.z,.orientation.w,.angular_velocity.x,.angular_velocity.y,.angular_velocity.z,.linear_acceleration.x,.linear_acceleration.y,.linear_acceleration.z
1969/12/31/18:00:05.829,1,1730348537,435129067,RU_myo,-0.4610921560459436,-0.7522118892476843,0.2108024231611766,-0.4208724696350532,-10.8125,-7.375,4.25,0.85302734375,0.5380859375,-0.18701171875
1969/12/31/18:00:05.852,2,1730348537,458220171,RU_myo,-0.4619581537076537,-0.7516203808838362,0.2118452571699387,-0.4204557697043238,-7.1875,-4.1875,1.625,0.86083984375,0.52490234375,-0.19091796875
1969/12/31/18:00:05.875,3,1730348537,479402169,RU_myo,-0.4634717492977943,-0.7516005520940658,0.2114124492451355,-0.4190409574241052,-5.1875,-5.375,-7.5625,0.8525390625,0.56884765625,-0.189453125
1969/12/31/18:00:05.891,4,1730348537,495136103,RU_myo,-0.4651175589419414,-0.7525737592590316,0.2086651271516202,-0.4168420059799842,-2.375,1.0625,-20.8125,0.9111328125,0.6201171875,-0.306640625
1969/12/31/18:00:05.915,5,1730348537,518131936,RU_myo,-0.4674469051077716,-0.7536276778000737,0.204458432185799,-0.4144097774750971,-1.6875,4.8125,-27.875,0.9423828125,0.681640625,-0.32177734375
1969/12/31/18:00:05.938,6,1730348537,539319759,RU_myo,-0.4713427645656256,-0.7538554742864959,0.1996935809476533,-0.411898526227296,-7.875,9.3125,-28.625,0.88232421875,0.73779296875,-0.2958984375
1969/12/31/18:00:05.953,7,1730348537,555118459,RU_myo,-0.477649512692539,-0.7527893035458442,0.1956739506379095,-0.4084983629505703,-24.9375,10.4375,-30.3125,0.9052734375,0.806640625,-0.31201171875
1969/12/31/18:00:05.978,8,1730348537,578245822,RU_myo,-0.4879635042541779,-0.7488210423632906,0.1918895881644947,-0.4053850650727016,-44.0,11.9375,-36.375,0.95458984375,0.83642578125,-0.13427734375
1969/12/31/18:00:06.000,9,1730348537,599390600,RU_myo,-0.5016934255771137,-0.7410048515732041,0.1875552185886217,-0.4050167362688232,-60.625,30.1875,-41.625,1.0087890625,0.77685546875,0.02880859375
1969/12/31/18:00:06.015,10,1730348537,614958731,RU_myo,-0.5192004538360024,-0.7284796775580727,0.1806551479198974,-0.4087933043133354,-73.5625,60.25,-51.5,1.05517578125,0.71728515625,0.24609375
1969/12/31/18:00:06.040,11,1730348537,638188560,RU_myo,-0.5384795491625862,-0.7144329142578755,0.1677751649833333,-0.4140976698479143,-70.75,93.625,-66.75,1.11865234375,0.94384765625,0.24169921875
1969/12/31/18:00:06.062,12,1730348537,659141896,RU_myo,-0.5577703923743406,-0.7006460339706126,0.1523355836925652,-0.4180684087716635,-78.8125,112.5625,-81.875,1.0166015625,0.994140625,0.166015625
1969/12/31/18:00:06.078,13,1730348537,675003124,RU_myo,-0.5801882149648951,-0.6840679058832889,0.1361666218795162,-0.4205845770379857,-99.9375,118.6875,-95.9375,0.93505859375,0.900390625,0.23681640625
1969/12/31/18:00:06.102,14,1730348537,698168268,RU_myo,-0.6045287974667468,-0.6642187685846144,0.1191968441648214,-0.4232617072621796,-117.5,132.5625,-101.375,0.82568359375,0.78759765625,0.17919921875
1969/12/31/18:00:06.124,15,1730348537,719301337,RU_myo,-0.6293789033852614,-0.6409142614864847,0.1000341371846822,-0.427906855278711,-124.625,156.875,-103.375,0.81494140625,0.69921875,0.25146484375
1969/12/31/18:00:06.140,16,1730348537,734985111,RU_myo,-0.6555484112045996,-0.6119713173027205,0.0798913388201118,-0.4351606155747877,-145.3125,184.875,-98.625,0.80419921875,0.6279296875,0.35205078125
1969/12/31/18:00:06.165,17,1730348537,758340699,RU_myo,-0.6819153327130242,-0.5764512948603341,0.0608493320249606,-0.4460860258479812,-172.375,210.75,-79.3125,0.798828125,0.62255859375,0.40771484375
1969/12/31/18:00:06.188,18,1730348537,780694112,RU_myo,-0.7073372674037186,-0.5355379224734799,0.042354794096478,-0.4594335590177044,-190.75,231.3125,-63.6875,0.77587890625,0.59326171875,0.466796875
1969/12/31/18:00:06.209,19,1730348537,801697596,RU_myo,-0.7301513790846992,-0.4910196309233808,0.0242915864645749,-0.4745404139750511,-197.9375,244.5,-48.125,0.75,0.5283203125,0.53564453125
1969/12/31/18:00:06.226,20,1730348537,818082166,RU_myo,-0.7484972799949257,-0.4460223517777982,0.0056149502413187,-0.4906978254369865,-185.75,252.375,-34.125,0.765625,0.45166015625,0.53857421875
1969/12/31/18:00:06.250,21,1730348537,840735869,RU_myo,-0.760561610112143,-0.40371650223815,-0.0151355544300923,-0.5082616826363285,-151.75,258.4375,-16.375,0.74267578125,0.3369140625,0.564453125
1969/12/31/18:00:06.272,22,1730348537,861874101,RU_myo,-0.7651675409330723,-0.366562674550852,-0.0370468770316961,-0.5279942886346022,-107.75,253.8125,12.875,0.6748046875,0.25,0.63037109375
1969/12/31/18:00:06.289,23,1730348537,878267163,RU_myo,-0.7625252811118131,-0.3395782506888208,-0.061153380156398,-0.547267824213993,-41.9375,233.9375,31.25,0.6171875,0.2939453125,0.58935546875
1969/12/31/18:00:06.312,24,1730348537,900576619,RU_myo,-0.7537395999962698,-0.3219414080955727,-0.087519237764749,-0.5661896574222992,18.3125,215.125,48.75,0.52099609375,0.291015625,0.6357421875
1969/12/31/18:00:06.335,25,1730348537,922232391,RU_myo,-0.7398840623283167,-0.3121147483912407,-0.1159597227108638,-0.584559065328765,67.25,199.9375,63.0,0.4892578125,0.365234375,0.60546875
1969/12/31/18:00:06.352,26,1730348537,938289297,RU_myo,-0.7227582050434859,-0.3071813921621233,-0.1462971978964056,-0.601545758225688,99.4375,191.8125,68.1875,0.4521484375,0.45703125,0.51220703125
1969/12/31/18:00:06.375,27,1730348537,960670639,RU_myo,-0.7036850035400575,-0.3020413774952077,-0.1792474289156243,-0.6176315902710652,111.4375,202.875,66.75,0.4052734375,0.482421875,0.46484375
1969/12/31/18:00:06.396,28,1730348537,981793403,RU_myo,-0.6844222194605135,-0.2971078441531817,-0.2094646920981347,-0.6319950136002869,104.75,187.0625,66.125,0.29736328125,0.587890625,0.5888671875
1969/12/31/18:00:06.413,29,1730348537,998182760,RU_myo,-0.6653661337211764,-0.2919139806997236,-0.2361311292760256,-0.6452257169051804,87.6875,170.8125,68.125,0.21142578125,0.8486328125,0.4580078125
1969/12/31/18:00:06.437,30,1730348538,20693526,RU_myo,-0.650782310442935,-0.2781830414516457,-0.2554792039308005,-0.6586554153896798,18.6875,168.375,53.1875,0.1474609375,0.837890625,0.30322265625
1969/12/31/18:00:06.459,31,1730348538,41816233,RU_myo,-0.641742065154972,-0.2579784792591599,-0.2647529318727787,-0.6719524619454343,-49.25,146.625,38.25,0.09375,0.76171875,0.4921875
1969/12/31/18:00:06.476,32,1730348538,58236310,RU_myo,-0.6318810296199352,-0.2427917256667731,-0.2714164917144646,-0.6841868387945015,-37.1875,116.6875,49.3125,0.05029296875,0.705078125,0.5146484375
1969/12/31/18:00:06.499,33,1730348538,80691357,RU_myo,-0.6206213072148147,-0.2297806295273652,-0.2773845846485724,-0.6964824818502768,-29.4375,107.625,59.375,0.04541015625,0.53173828125,0.388671875
1969/12/31/18:00:06.521,34,1730348538,101816025,RU_myo,-0.6089301034194735,-0.2197201936764663,-0.2835000832297739,-0.7074990236382216,-16.5625,95.625,61.1875,-0.00927734375,0.44921875,0.43505859375
1969/12/31/18:00:06.539,35,1730348538,118225464,RU_myo,-0.594449114581004,-0.2178222679609449,-0.2935016213572945,-0.7162684608544829,44.5,77.1875,73.6875,-0.03076171875,0.39404296875,0.5634765625
1969/12/31/18:00:06.561,36,1730348538,140614477,RU_myo,-0.5765721827768155,-0.2286880458203374,-0.3137670786128516,-0.7188995174053255,136.1875,57.9375,75.125,0.0048828125,0.68017578125,0.52392578125
1969/12/31/18:00:06.583,37,1730348538,161780366,RU_myo,-0.5612677709876759,-0.2395580688480456,-0.332390635145594,-0.7191014438643755,126.3125,44.8125,58.375,0.00048828125,0.9736328125,0.396484375
1969/12/31/18:00:06.608,38,1730348538,185717466,RU_myo,-0.5501507566025081,-0.2449861478813476,-0.3449580736983998,-0.7199443448949618,63.3125,39.9375,41.0625,-0.02099609375,0.9912109375,0.46923828125
1969/12/31/18:00:06.624,39,1730348538,200660071,RU_myo,-0.5421954017475409,-0.2474178476682272,-0.3513528734647222,-0.7220524311205714,27.4375,31.75,31.3125,0.04345703125,0.9736328125,0.5419921875
1969/12/31/18:00:06.645,40,1730348538,221774931,RU_myo,-0.5370763853917113,-0.2468110116504636,-0.3525784407281723,-0.7254803401308264,-8.125,25.3125,23.4375,0.07275390625,0.92333984375,0.53662109375
1969/12/31/18:00:06.663,41,1730348538,238284561,RU_myo,-0.5348282518725358,-0.2440081423013121,-0.3495944570039809,-0.729522092278035,-35.5,15.0625,17.3125,0.03759765625,0.84521484375,0.52197265625
1969/12/31/18:00:06.692,42,1730348538,266767655,RU_myo,-0.5327424440656287,-0.2418671446708771,-0.3450711168228966,-0.7339016943394643,-35.1875,8.6875,20.3125,0.06005859375,0.72412109375,0.54736328125
1969/12/31/18:00:06.708,43,1730348538,281842151,RU_myo,-0.5294544960673686,-0.2424810043660698,-0.3425128105971265,-0.7372692002874713,-12.3125,4.125,24.375,0.0732421875,0.7265625,0.587890625
1969/12/31/18:00:06.725,44,1730348538,298277531,RU_myo,-0.5259480171460118,-0.2449094213050528,-0.3429830420469467,-0.7387561786438237,4.625,2.75,20.5625,0.05859375,0.8759765625,0.61767578125
1969/12/31/18:00:06.748,45,1730348538,320748116,RU_myo,-0.5238334977718945,-0.2465673227307996,-0.3439125899970436,-0.739274747583707,3.3125,3.1875,9.25,0.05908203125,0.90576171875,0.62109375
1969/12/31/18:00:06.770,46,1730348538,341932351,RU_myo,-0.5224281013342202,-0.2471768470097654,-0.3439114896049453,-0.7400657893433126,5.6875,5.1875,5.0,0.09375,0.75830078125,0.69580078125
1969/12/31/18:00:06.788,47,1730348538,358332453,RU_myo,-0.5193240589104446,-0.2505376967713451,-0.3475790945463605,-0.7394066251851025,35.125,8.3125,5.0625,0.150390625,0.78076171875,0.70654296875
1969/12/31/18:00:06.811,48,1730348538,380748410,RU_myo,-0.5156649439503661,-0.2543230940278347,-0.3529518725133113,-0.7381289894822733,43.9375,10.625,4.875,0.1318359375,0.7998046875,0.67724609375
1969/12/31/18:00:06.832,49,1730348538,401721763,RU_myo,-0.5120543208626002,-0.2563933494569467,-0.359109371150839,-0.736955414113933,41.1875,16.8125,4.125,0.0576171875,0.80712890625,0.64697265625
1969/12/31/18:00:06.849,50,1730348538,417442774,RU_myo,-0.5093018211998414,-0.2576719339851084,-0.3663067143009524,-0.7348715672938634,45.6875,17.5,-0.875,-0.01904296875,0.78125,0.64306640625
1969/12/31/18:00:06.873,51,1730348538,440816372,RU_myo,-0.5067456445693276,-0.2587741217600806,-0.373147401047437,-0.7328068113144547,46.375,16.4375,-1.5,-0.02783203125,0.72607421875,0.63671875
1969/12/31/18:00:06.895,52,1730348538,461735239,RU_myo,-0.5032704201642814,-0.2612172445189333,-0.3809621589456032,-0.7303097074564383,52.5625,15.9375,1.1875,-0.0048828125,0.79736328125,0.5947265625
1969/12/31/18:00:06.919,53,1730348538,484318795,RU_myo,-0.4999075851276907,-0.2636553250826057,-0.3890136671473447,-0.72749339698719,51.75,14.75,1.1875,-0.044921875,0.79296875,0.5302734375
1969/12/31/18:00:06.935,54,1730348538,500600779,RU_myo,-0.4972819776620865,-0.2659128100974117,-0.3965805462503974,-0.7243789632880835,42.875,11.3125,-1.875,-0.05419921875,0.92626953125,0.50341796875
1969/12/31/18:00:06.957,55,1730348538,521766003,RU_myo,-0.496204236792191,-0.2678160136585651,-0.4028836613856399,-0.7209304360380517,33.0,5.4375,-7.75,-0.06591796875,1.0087890625,0.4990234375
1969/12/31/18:00:06.974,56,1730348538,537580163,RU_myo,-0.4975853616601131,-0.268353101339325,-0.4060999627727698,-0.7179681337629793,10.375,-4.5625,-12.25,-0.1142578125,0.96044921875,0.4375
1969/12/31/18:00:06.997,57,1730348538,560773869,RU_myo,-0.5014211919039294,-0.2685313101725036,-0.4073131736571111,-0.7145374044317437,-3.25,-15.9375,-20.4375,-0.13916015625,0.9580078125,0.4150390625
1969/12/31/18:00:07.019,58,1730348538,581754302,RU_myo,-0.5070016679096059,-0.268606517451568,-0.4077619048157069,-0.7103028062034421,-1.8125,-18.3125,-36.125,-0.02685546875,0.9794921875,0.51416015625
1969/12/31/18:00:07.036,59,1730348538,597577651,RU_myo,-0.5137068432560757,-0.2676255800971714,-0.4078772524035112,-0.7057747339210241,-4.1875,-13.4375,-51.25,0.08544921875,1.0185546875,0.59130859375
1969/12/31/18:00:07.060,60,1730348538,620682376,RU_myo,-0.5215826639328807,-0.2625002384244465,-0.4044615391859583,-0.703886363578038,-33.25,-2.3125,-57.25,0.158203125,0.9794921875,0.677734375
1969/12/31/18:00:07.082,61,1730348538,641737071,RU_myo,-0.5279221747316589,-0.2538908955934914,-0.3988406256498717,-0.7055237387165292,-38.5,15.6875,-44.75,0.16259765625,0.6943359375,0.8583984375
1969/12/31/18:00:07.098,62,1730348538,657508493,RU_myo,-0.5296864691451946,-0.2476020284966072,-0.3979819639700211,-0.7069199645245753,-8.75,30.0625,-27.5,0.13134765625,0.69677734375,0.8095703125
1969/12/31/18:00:07.122,63,1730348538,680746584,RU_myo,-0.5287667783122347,-0.2412528941214524,-0.401579570786531,-0.7077687359287842,0.5,43.625,-18.1875,-0.00439453125,0.84228515625,0.67236328125
1969/12/31/18:00:07.144,64,1730348538,701782216,RU_myo,-0.5286114882170804,-0.2324767531022813,-0.4056899390577223,-0.708477330010838,-9.0,49.875,-23.4375,-0.09814453125,0.87451171875,0.64306640625
1969/12/31/18:00:07.168,65,1730348538,724334035,RU_myo,-0.5293933613071978,-0.2225844579994639,-0.4095871394665211,-0.7088280491378597,-10.375,52.0625,-31.8125,-0.08935546875,0.78369140625,0.64013671875
1969/12/31/18:00:07.184,66,1730348538,740724619,RU_myo,-0.5291608708934074,-0.2138615561257785,-0.4144788320919411,-0.7088436395104999,-0.1875,53.9375,-28.4375,-0.0703125,0.70361328125,0.5947265625
1969/12/31/18:00:07.208,67,1730348538,763265910,RU_myo,-0.5271335742872033,-0.2063492664889469,-0.4213650801063854,-0.7085207437652128,14.125,57.8125,-20.9375,-0.09716796875,0.6796875,0.56591796875
1969/12/31/18:00:07.230,68,1730348538,784243237,RU_myo,-0.5234702266312833,-0.2010389327880899,-0.4315562518957449,-0.706626825689285,41.3125,60.8125,-15.9375,-0.1318359375,0.666015625,0.57177734375
1969/12/31/18:00:07.247,69,1730348538,800755474,RU_myo,-0.5182114313460215,-0.1976173141795333,-0.4443032882109335,-0.7035615805625882,61.375,61.6875,-9.6875,-0.17138671875,0.65087890625,0.521484375
1969/12/31/18:00:07.270,70,1730348538,823189592,RU_myo,-0.5117999691505077,-0.1957241236663103,-0.4585205304349826,-0.6996511860650394,70.0625,60.4375,-4.0,-0.2109375,0.7177734375,0.4462890625
1969/12/31/18:00:07.292,71,1730348538,844298330,RU_myo,-0.5052113676631967,-0.1939552701659385,-0.4719496866561367,-0.6959930462468102,64.5,57.125,-0.0625,-0.2568359375,0.78857421875,0.42626953125
1969/12/31/18:00:07.309,72,1730348538,860700138,RU_myo,-0.4992964303206209,-0.1910277260608169,-0.4818415007188976,-0.6942911858363748,41.8125,53.0,2.0,-0.2412109375,0.80224609375,0.423828125
1969/12/31/18:00:07.333,73,1730348538,883301579,RU_myo,-0.4943638725592912,-0.1862714245741921,-0.4875892565279232,-0.6951000178491071,15.75,49.75,4.375,-0.224609375,0.73486328125,0.44384765625
1969/12/31/18:00:07.355,74,1730348538,904570658,RU_myo,-0.4890427641727287,-0.1813236056854083,-0.4909957616085864,-0.6977693651300146,-0.875,46.5,12.9375,-0.2265625,0.759765625,0.42041015625
1969/12/31/18:00:07.379,75,1730348538,928269469,RU_myo,-0.4833087703894255,-0.1758929001467766,-0.492463501486586,-0.702106843611561,-18.0625,44.9375,20.1875,-0.248046875,0.83740234375,0.40283203125
1969/12/31/18:00:07.395,76,1730348538,943252035,RU_myo,-0.4780623576863111,-0.1695464355486496,-0.4918555522269859,-0.7076641181377221,-31.875,43.3125,19.75,-0.23779296875,0.828125,0.41943359375
1969/12/31/18:00:07.417,77,1730348538,964278481,RU_myo,-0.4728633545371706,-0.1636224385020849,-0.4906231940015894,-0.7133840670089039,-31.5,41.125,21.0,-0.20947265625,0.78515625,0.43896484375
1969/12/31/18:00:07.433,78,1730348538,980746305,RU_myo,-0.4666541561654281,-0.1601491637167255,-0.4908230086165803,-0.7181078735865064,-16.8125,37.3125,27.25,-0.1943359375,0.798828125,0.42431640625
1969/12/31/18:00:07.457,79,1730348539,3252369,RU_myo,-0.4601163007770391,-0.1581325554202557,-0.4928291721414763,-0.7213920513575542,-1.9375,34.1875,28.5,-0.216796875,0.7900390625,0.40234375
1969/12/31/18:00:07.479,80,1730348539,24291497,RU_myo,-0.4532273527215968,-0.157952112691017,-0.4963773309567394,-0.7233572023237766,17.625,31.25,30.9375,-0.203125,0.72412109375,0.4306640625
1969/12/31/18:00:07.496,81,1730348539,40794551,RU_myo,-0.4450383143234013,-0.1604505935760041,-0.5017361467433739,-0.7241942728691004,37.3125,29.5625,36.625,-0.16015625,0.76318359375,0.4482421875
1969/12/31/18:00:07.521,82,1730348539,64061690,RU_myo,-0.4360669566915936,-0.1635632531747335,-0.5077784576170832,-0.7247438923320748,33.875,28.1875,40.4375,-0.19140625,0.92578125,0.3623046875
1969/12/31/18:00:07.541,83,1730348539,84327896,RU_myo,-0.4292293574646895,-0.1644779067776678,-0.5109495493664696,-0.7263881434017823,8.0625,22.5625,34.0,-0.25146484375,0.9921875,0.32958984375
1969/12/31/18:00:07.558,84,1730348539,100761129,RU_myo,-0.4239867793393417,-0.1649074820461928,-0.5106517032866377,-0.7295721837084339,-8.25,14.5,32.0625,-0.20556640625,0.85107421875,0.34814453125
1969/12/31/18:00:07.582,85,1730348539,123397485,RU_myo,-0.4187383697618987,-0.1665554600029473,-0.5087601006172844,-0.7335397851870371,-11.3125,7.6875,38.0625,-0.15966796875,0.796875,0.3740234375
1969/12/31/18:00:07.604,86,1730348539,144306511,RU_myo,-0.4151452486392961,-0.1682674875769684,-0.5051076268360504,-0.7377037077775908,-23.9375,-3.1875,35.25,-0.2080078125,0.95263671875,0.40185546875
1969/12/31/18:00:07.620,87,1730348539,160658157,RU_myo,-0.4144589749426794,-0.1696651377323882,-0.4977657781817837,-0.7427427072673257,-46.625,-18.0625,26.5,-0.1962890625,1.0029296875,0.42822265625
1969/12/31/18:00:07.644,88,1730348539,183194818,RU_myo,-0.4113594508095898,-0.1721728502572481,-0.4905186804386755,-0.7486864069853469,-44.9375,-12.5625,38.375,-0.0927734375,0.8798828125,0.365234375
1969/12/31/18:00:07.649,89,1730348539,188533823,RU_myo,-0.4076893961789858,-0.1743055262705364,-0.4854433319173133,-0.7534930067703233,-31.1875,-7.25,38.375,-0.13427734375,0.810546875,0.35986328125
1969/12/31/18:00:07.675,90,1730348539,214062473,RU_myo,-0.4045222415648365,-0.1772378680603931,-0.4834980684484966,-0.7557632645288731,-7.5625,-8.1875,32.5625,-0.169921875,0.82373046875,0.39306640625
1969/12/31/18:00:07.688,91,1730348539,226125334,RU_myo,-0.4010897744531524,-0.1827851300193535,-0.4843348219811652,-0.7557356477561452,21.375,-12.625,29.6875,-0.11572265625,0.83154296875,0.46240234375
1969/12/31/18:00:07.712,92,1730348539,248586714,RU_myo,-0.3962109294642107,-0.1891339603218713,-0.4866583412735083,-0.7552541978003092,30.875,-8.1875,32.6875,-0.06103515625,0.8916015625,0.45703125
1969/12/31/18:00:07.736,93,1730348539,271157197,RU_myo,-0.3921278502269067,-0.1940803990228114,-0.4894121760263915,-0.754350230164135,23.8125,-5.875,27.9375,-0.12451171875,1.0048828125,0.404296875
1969/12/31/18:00:07.750,94,1730348539,286094092,RU_myo,-0.3894423645921204,-0.1978643074765169,-0.4905106228219514,-0.7540448855250976,15.0625,-8.375,22.5625,-0.126953125,0.93505859375,0.42919921875
1969/12/31/18:00:07.774,95,1730348539,308641807,RU_myo,-0.3870544647183895,-0.2018883899855617,-0.4892802970115624,-0.7550064306261742,7.0625,-10.3125,21.6875,-0.0224609375,0.9072265625,0.5
1969/12/31/18:00:07.798,96,1730348539,331160632,RU_myo,-0.3849820484212999,-0.2048802689521724,-0.4863541445575997,-0.7571476367651628,-9.5,-9.5,22.375,-0.01904296875,0.97216796875,0.4794921875
1969/12/31/18:00:07.813,97,1730348539,346199657,RU_myo,-0.3838304330232554,-0.2060441313223899,-0.4826412886544607,-0.7597877342513129,-25.625,-7.875,19.3125,-0.078125,1.02734375,0.4248046875
1969/12/31/18:00:07.836,98,1730348539,368660329,RU_myo,-0.3838835604744854,-0.2068332887834707,-0.4779319812520978,-0.7625184744941528,-27.3125,-11.125,13.875,-0.0634765625,0.89306640625,0.44677734375
1969/12/31/18:00:07.862,99,1730348539,394024989,RU_myo,-0.383275131481343,-0.2089703901579806,-0.4736621489532966,-0.7649024240216038,-16.1875,-12.8125,16.375,0.00439453125,0.77197265625,0.458984375
1969/12/31/18:00:07.875,100,1730348539,406057792,RU_myo,-0.3816902137889917,-0.2126943388318893,-0.47110117688475,-0.766248902161943,-7.1875,-14.375,19.75,0.01708984375,0.89453125,0.43798828125
1969/12/31/18:00:07.898,101,1730348539,428481530,RU_myo,-0.3812135774968549,-0.2154473148517287,-0.4691014339802796,-0.7669436142852191,-13.25,-14.875,14.125,-0.04296875,1.02294921875,0.39013671875
1969/12/31/18:00:07.922,102,1730348539,451154204,RU_myo,-0.38236144852651,-0.2169054410316387,-0.4651199679521999,-0.7683847784435373,-24.0,-17.4375,8.375,-0.0478515625,0.89208984375,0.41064453125
1969/12/31/18:00:07.937,103,1730348539,466032492,RU_myo,-0.3826004378536694,-0.2195268423926701,-0.4600481895901994,-0.7705715629830004,-17.5,-19.4375,14.625,0.0244140625,0.73291015625,0.48583984375
1969/12/31/18:00:07.971,104,1730348539,498990082,RU_myo,-0.3817507993800768,-0.2233745684622032,-0.4562089888674778,-0.7721680437660642,-9.9375,-18.6875,18.3125,0.0615234375,0.91748046875,0.533203125
1969/12/31/18:00:07.985,105,1730348539,511129707,RU_myo,-0.3813187028316697,-0.2255077796035562,-0.4524192612181765,-0.7739890827962923,-18.375,-14.25,16.0,0.00830078125,0.92333984375,0.48388671875
1969/12/31/18:00:07.999,106,1730348539,526134814,RU_myo,-0.3806049819381639,-0.2283874025677693,-0.4471925437236894,-0.776529375432851,-18.5,-16.75,18.75,0.08203125,0.73681640625,0.48876953125
1969/12/31/18:00:08.023,107,1730348539,548641377,RU_myo,-0.3775394791684829,-0.2307592581209236,-0.4447959463595058,-0.7786980625138495,9.0625,2.625,13.625,0.25146484375,0.98388671875,0.83154296875
1969/12/31/18:00:08.046,108,1730348539,571012390,RU_myo,-0.3761978245122829,-0.2289289486933116,-0.4447361367976972,-0.7799208305390108,-1.375,13.0,3.6875,0.03076171875,1.0205078125,0.6513671875
1969/12/31/18:00:08.063,109,1730348539,586142317,RU_myo,-0.3744319544757558,-0.2256356863401579,-0.4446799055110605,-0.7817602126943693,-14.625,17.25,11.0,-0.1015625,0.88916015625,0.44189453125
1969/12/31/18:00:08.085,110,1730348539,608536600,RU_myo,-0.3734571720455428,-0.225819829476795,-0.4474284242957795,-0.7806042213535698,14.375,4.3125,1.6875,-0.03466796875,0.81494140625,0.42529296875
1969/12/31/18:00:08.109,111,1730348539,631146519,RU_myo,-0.3716219819037759,-0.2264275829960598,-0.4507800884121019,-0.7793747263772735,23.0,8.0625,1.625,0.0390625,0.830078125,0.48828125
1969/12/31/18:00:08.125,112,1730348539,646140052,RU_myo,-0.3693689762860034,-0.227651401445273,-0.4552417703432417,-0.7774936201102771,28.0625,8.125,2.1875,0.0341796875,0.87060546875,0.4453125
1969/12/31/18:00:08.148,113,1730348539,668612400,RU_myo,-0.367471725453773,-0.2287467242984124,-0.4588361454843822,-0.7759567376547534,20.75,5.25,4.0,0.0078125,0.9130859375,0.42626953125
1969/12/31/18:00:08.180,114,1730348539,700020475,RU_myo,-0.367475124188555,-0.2292370978993876,-0.4601220663108314,-0.7750484308371467,0.8125,-1.5,-0.375,-0.01513671875,0.892578125,0.341796875
1969/12/31/18:00:08.186,115,1730348539,706192541,RU_myo,-0.3693634130043939,-0.2299671745209115,-0.459079906249017,-0.7745523916785796,-16.4375,-12.375,-2.875,-0.0341796875,0.88916015625,0.28076171875
1969/12/31/18:00:08.210,116,1730348539,728654825,RU_myo,-0.3726577238017777,-0.2315531287428667,-0.4549890813858913,-0.7749156762383183,-34.1875,-24.0,-4.25,0.015625,0.9609375,0.2939453125
1969/12/31/18:00:08.229,117,1730348539,746599114,RU_myo,-0.3785224857631681,-0.2331434852652857,-0.4470617878450833,-0.7762091218858389,-61.1875,-36.6875,-9.25,0.03466796875,0.955078125,0.24267578125
1969/12/31/18:00:08.249,118,1730348539,766155813,RU_myo,-0.3893242902049422,-0.2342415152542041,-0.4300937879094259,-0.7801133527825006,-106.5625,-64.5625,-13.25,-0.0322265625,0.96923828125,-0.02490234375
1969/12/31/18:00:08.272,119,1730348539,788547561,RU_myo,-0.4049444343461259,-0.2369245356641538,-0.4044561818254373,-0.7850490217022182,-153.5,-100.9375,-16.6875,-0.03369140625,0.896484375,-0.1923828125
1969/12/31/18:00:08.291,120,1730348539,806578803,RU_myo,-0.4251488849373839,-0.2418698006039122,-0.3697928644610406,-0.7899371257169912,-192.9375,-142.5,-20.9375,0.03564453125,0.7236328125,-0.14404296875
1969/12/31/18:00:08.319,121,1730348539,833722679,RU_myo,-0.4477411123024872,-0.2481618542287231,-0.3276273569846989,-0.794105726849463,-220.875,-171.5625,-22.375,0.18798828125,0.52294921875,0.07861328125
1969/12/31/18:00:08.335,122,1730348539,848654312,RU_myo,-0.4710445714097842,-0.2551745728251241,-0.2823337894974944,-0.795795564474239,-225.6875,-185.9375,-27.875,0.3720703125,0.3603515625,0.27001953125
1969/12/31/18:00:08.353,123,1730348539,866568072,RU_myo,-0.4931348814970653,-0.2643276202677957,-0.2382671506639286,-0.7938373024297436,-204.5625,-194.875,-31.5625,0.48779296875,0.25439453125,0.390625
1969/12/31/18:00:08.381,124,1730348539,893510791,RU_myo,-0.5121838119640225,-0.2782466633393683,-0.1978059740914438,-0.7881112445056511,-164.625,-208.125,-26.25,0.4677734375,0.2265625,0.41162109375
1969/12/31/18:00:08.397,125,1730348539,908608139,RU_myo,-0.5272538953089075,-0.2979573465560929,-0.1617953555346584,-0.7791322175614671,-117.0625,-222.125,-18.375,0.4951171875,0.255859375,0.4921875
1969/12/31/18:00:08.423,126,1730348539,934087320,RU_myo,-0.5402528429207619,-0.3208437861765076,-0.1307909898756431,-0.7668636433912533,-78.875,-224.9375,-25.0625,0.60791015625,0.3271484375,0.599609375
1969/12/31/18:00:08.436,127,1730348539,946164976,RU_myo,-0.5523979301557694,-0.3458666523249083,-0.1033877023184038,-0.7513612770022845,-52.8125,-229.0,-35.0,0.62744140625,0.4150390625,0.6298828125
1969/12/31/18:00:08.459,128,1730348539,968710922,RU_myo,-0.5618689792077346,-0.374070711879666,-0.0769014679341457,-0.7337986896605033,-33.5625,-243.25,-29.1875,0.615234375,0.466796875,0.59375
1969/12/31/18:00:08.478,129,1730348539,986618292,RU_myo,-0.5672364904208677,-0.4053781761755329,-0.0483988096517912,-0.7152404165313264,-22.9375,-262.0,-9.875,0.7734375,0.5244140625,0.5576171875
1969/12/31/18:00:08.501,130,1730348540,9056402,RU_myo,-0.5723531017137944,-0.435886740503297,-0.0169057164826957,-0.6943550051394582,-39.0,-270.875,-10.1875,1.04833984375,0.666015625,0.45166015625
1969/12/31/18:00:08.521,131,1730348540,28557041,RU_myo,-0.5794385578365299,-0.4648203135120087,0.018492719930953,-0.6692167460161733,-62.5,-290.25,-23.125,1.10107421875,0.5888671875,0.51708984375
1969/12/31/18:00:08.540,132,1730348540,46396971,RU_myo,-0.5851201327735271,-0.4951579886504251,0.054990428666835,-0.6398664307914529,-57.25,-312.3125,-28.25,1.05224609375,0.50830078125,0.50390625
1969/12/31/18:00:08.568,133,1730348540,73603343,RU_myo,-0.5875058591514049,-0.526594696941442,0.0919160423729499,-0.6075247581542784,-45.5,-329.625,-26.125,1.158203125,0.490234375,0.583984375
1969/12/31/18:00:08.584,134,1730348540,88617109,RU_myo,-0.5906348230259894,-0.5533424930819076,0.1265253682063528,-0.5735450482561975,-55.75,-310.625,-40.1875,1.31494140625,0.46630859375,0.544921875
1969/12/31/18:00:08.606,135,1730348540,111102454,RU_myo,-0.5939871272776813,-0.5747612800630831,0.1605816000685963,-0.5394833762851855,-71.5,-292.875,-40.0625,1.361328125,0.3994140625,0.56884765625
1969/12/31/18:00:08.622,136,1730348540,126151579,RU_myo,-0.594341423571394,-0.5945245232089699,0.1890808924033866,-0.5074911621478888,-47.125,-267.3125,-40.9375,1.35546875,0.380859375,0.64013671875
1969/12/31/18:00:08.647,137,1730348540,150161461,RU_myo,-0.5931122278826062,-0.6126425749625027,0.2120873628207508,-0.4773949214342196,-29.4375,-240.3125,-45.6875,1.177734375,0.35693359375,0.56591796875
1969/12/31/18:00:08.665,138,1730348540,166623193,RU_myo,-0.5915761938492209,-0.6274015550159899,0.2316137063507472,-0.4502887814112815,-25.8125,-210.25,-42.4375,1.09716796875,0.31982421875,0.57568359375
1969/12/31/18:00:08.684,139,1730348540,186110827,RU_myo,-0.5864748373303832,-0.640123643867318,0.2489573172516009,-0.4293125201146753,-6.875,-179.875,-17.375,1.15625,0.39111328125,0.478515625
1969/12/31/18:00:08.708,140,1730348540,208656524,RU_myo,-0.5827329888098272,-0.6479151036033856,0.2659161743029343,-0.412209740932297,-21.75,-151.5,-0.5625,1.0380859375,0.43408203125,0.5078125
1969/12/31/18:00:08.727,141,1730348540,226559846,RU_myo,-0.5812040272946692,-0.6526720432520416,0.2789754918370191,-0.3979871324150518,-28.4375,-113.8125,-2.8125,0.9375,0.57080078125,0.2578125
1969/12/31/18:00:08.747,142,1730348540,246169729,RU_myo,-0.5807250639952375,-0.6557341132490627,0.2866090279055843,-0.3881062198576684,-12.0625,-84.125,-11.5625,0.89208984375,0.51318359375,0.2099609375
1969/12/31/18:00:08.771,143,1730348540,268687360,RU_myo,-0.580420838312124,-0.6578713161058237,0.2908207460102282,-0.3817594472810026,-2.5,-58.125,-17.75,0.95947265625,0.4541015625,0.212890625
1969/12/31/18:00:08.789,144,1730348540,286570359,RU_myo,-0.5802897235879233,-0.6585324061331187,0.2938067658132375,-0.3785188121258204,-1.4375,-36.75,-9.6875,1.0390625,0.51611328125,0.16357421875
1969/12/31/18:00:08.812,145,1730348540,309125372,RU_myo,-0.5805948746869497,-0.657250731157759,0.2977738246186931,-0.377176109068154,-9.25,-26.1875,4.5,1.013671875,0.5205078125,0.14208984375
1969/12/31/18:00:08.833,146,1730348540,328589821,RU_myo,-0.5796200520715419,-0.6570695462358871,0.3002159667410671,-0.3770551418024624,-1.125,-13.0,3.9375,0.92333984375,0.46240234375,0.0029296875
1969/12/31/18:00:08.851,147,1730348540,346651758,RU_myo,-0.5776796416771242,-0.6586707546729555,0.3002835538353355,-0.3771854395736532,13.5625,-8.6875,-5.6875,0.830078125,0.39404296875,-0.01220703125
1969/12/31/18:00:08.873,148,1730348540,367662108,RU_myo,-0.5745511087778639,-0.6614600506622571,0.2986274246069776,-0.3783956739348583,26.375,-1.3125,-5.875,0.8427734375,0.443359375,-0.05615234375
1969/12/31/18:00:08.895,149,1730348540,388647539,RU_myo,-0.5698642778199214,-0.6655028473116016,0.2964368423874219,-0.3801129615789301,36.4375,0.4375,-3.8125,0.88916015625,0.486328125,-0.1220703125
1969/12/31/18:00:08.914,150,1730348540,406526099,RU_myo,-0.5649255405595697,-0.6693537600817633,0.2943032580572866,-0.3823745150827252,37.0,2.9375,1.5,0.87158203125,0.51416015625,-0.14306640625
1969/12/31/18:00:08.936,151,1730348540,427663321,RU_myo,-0.5612992421972216,-0.6720089111485927,0.2928252434557213,-0.3841881841504305,27.25,2.125,4.375,0.83837890625,0.53955078125,-0.111328125
1969/12/31/18:00:08.957,152,1730348540,448747642,RU_myo,-0.5580762970375395,-0.6735487766957879,0.2924651810371707,-0.3864544086659776,20.6875,2.625,9.4375,0.8232421875,0.49609375,-0.10546875
1969/12/31/18:00:08.976,153,1730348540,467049705,RU_myo,-0.5539833687456668,-0.6747648038836721,0.2928293712946688,-0.3899305654859606,23.5,4.0,14.6875,0.8427734375,0.4345703125,-0.1025390625
1969/12/31/18:00:08.998,154,1730348540,487612628,RU_myo,-0.5501461897470434,-0.6764222565971248,0.2912466848760696,-0.3936590774205048,28.0625,12.5625,12.8125,0.8349609375,0.5224609375,-0.13720703125
1969/12/31/18:00:09.020,155,1730348540,508674698,RU_myo,-0.547470189218371,-0.6782649066648558,0.2878338252345415,-0.3967175284191094,27.3125,17.3125,6.4375,0.857421875,0.63330078125,-0.14453125
1969/12/31/18:00:09.038,156,1730348540,526607645,RU_myo,-0.5467191868872509,-0.6792793648197256,0.2833077099275082,-0.3992673499236877,20.25,22.5625,-0.125,0.87353515625,0.6865234375,-0.12109375
1969/12/31/18:00:09.060,157,1730348540,547594693,RU_myo,-0.547462745660844,-0.6789270437827457,0.2792243100778552,-0.401716810695616,8.8125,25.9375,-3.625,0.86669921875,0.626953125,-0.10595703125
1969/12/31/18:00:09.082,158,1730348540,568647529,RU_myo,-0.5482479674380396,-0.6779403787489418,0.2761075147155394,-0.4044572281211052,4.1875,26.0625,-4.0,0.8740234375,0.52978515625,-0.1103515625
1969/12/31/18:00:09.101,159,1730348540,586563581,RU_myo,-0.5478795761224853,-0.6770832146043055,0.2737261778889769,-0.4079954290273826,7.25,26.5,0.0,0.86279296875,0.4560546875,-0.13037109375
1969/12/31/18:00:09.121,160,1730348540,606822302,RU_myo,-0.5467833700409475,-0.6765978837229539,0.2713471216879174,-0.4118421900922328,11.4375,25.8125,2.1875,0.84619140625,0.44189453125,-0.12890625
1969/12/31/18:00:09.145,161,1730348540,629272550,RU_myo,-0.5449085252470541,-0.6766801993071336,0.2685481083206808,-0.4160054332531273,17.625,26.3125,3.5,0.83544921875,0.455078125,-0.13427734375
1969/12/31/18:00:09.162,162,1730348540,645773599,RU_myo,-0.5429425718773151,-0.6768472484396835,0.265551161222819,-0.4202067903974049,19.75,25.5,5.875,0.81884765625,0.48681640625,-0.11279296875
1969/12/31/18:00:09.186,163,1730348540,668304043,RU_myo,-0.5414879040417412,-0.676493679936729,0.262992716243898,-0.4242428337459584,15.0,25.125,7.3125,0.83056640625,0.50830078125,-0.1005859375
1969/12/31/18:00:09.208,164,1730348540,689339225,RU_myo,-0.5408042687915774,-0.6756849181572682,0.2608506313977205,-0.4277120320157289,8.4375,24.5625,5.4375,0.87841796875,0.51904296875,-0.107421875
1969/12/31/18:00:09.224,165,1730348540,705855899,RU_myo,-0.540794997558719,-0.6743306543309203,0.2592593555613856,-0.4308172765790539,2.0625,24.0,5.5,0.88330078125,0.51611328125,-0.1083984375
1969/12/31/18:00:09.248,166,1730348540,728131996,RU_myo,-0.5409358825853725,-0.672401062669869,0.2586580469814745,-0.4340059868063392,-2.0,22.1875,9.375,0.8671875,0.5,-0.08837890625
1969/12/31/18:00:09.270,167,1730348540,749287403,RU_myo,-0.5411765282792892,-0.6702605879737402,0.2584732826505909,-0.437115856043337,-3.6875,20.375,12.625,0.84814453125,0.50146484375,-0.06787109375
1969/12/31/18:00:09.286,168,1730348540,765708407,RU_myo,-0.5414214202260721,-0.6681253846482709,0.2584126133735981,-0.4401070748788418,-4.4375,19.875,13.0,0.84326171875,0.50732421875,-0.06640625
1969/12/31/18:00:09.310,169,1730348540,788243316,RU_myo,-0.5417032924659564,-0.6659606047080346,0.2586456234194145,-0.4428955377901583,-5.375,17.5625,12.625,0.8447265625,0.48779296875,-0.05029296875
1969/12/31/18:00:09.332,170,1730348540,809403343,RU_myo,-0.5418466047822064,-0.6637895554867399,0.2601205484998607,-0.4451100798239052,-8.4375,10.875,16.1875,0.8271484375,0.47314453125,-0.037109375
1969/12/31/18:00:09.349,171,1730348540,825730277,RU_myo,-0.5422558950422895,-0.6612043181641154,0.2623090418561351,-0.4471703931316664,-11.625,7.375,18.5625,0.83154296875,0.48046875,0.00146484375
1969/12/31/18:00:09.373,172,1730348540,848211031,RU_myo,-0.5432513662842391,-0.6588471518973554,0.2642712522200601,-0.4482846068259449,-13.375,3.875,13.625,0.85888671875,0.49609375,0.02490234375
1969/12/31/18:00:09.394,173,1730348540,869240388,RU_myo,-0.5448336886947311,-0.6565224587531335,0.2665882773853014,-0.4484029473328318,-17.1875,-2.0,9.5,0.89208984375,0.49609375,0.0498046875
1969/12/31/18:00:09.411,174,1730348540,885792317,RU_myo,-0.5467260722084575,-0.6540816382962759,0.2695180101442898,-0.4479150082538367,-20.1875,-7.125,8.3125,0.904296875,0.4912109375,0.0849609375
1969/12/31/18:00:09.435,175,1730348540,908332104,RU_myo,-0.548723620569987,-0.6513766213261564,0.2726224461223592,-0.4475353475297203,-20.875,-8.125,9.6875,0.89990234375,0.4814453125,0.11474609375
1969/12/31/18:00:09.435,1,1730348545,121716962,RU_myo,-0.4809304750129021,-0.7379353265711929,0.2417469050160032,-0.4070820137482306,1.75,-6.0,7.625,0.82763671875,0.59912109375,-0.236328125
1969/12/31/18:00:09.452,2,1730348545,138232460,RU_myo,-0.4817917979346184,-0.7376406979779323,0.2432761726079793,-0.4056840740906268,-9.4375,-7.75,5.25,0.8310546875,0.5849609375,-0.216796875
1969/12/31/18:00:09.482,3,1730348545,166742402,RU_myo,-0.4838582029449225,-0.7366509219910714,0.2452248056802092,-0.4038458285679304,-17.75,-8.6875,1.6875,0.84619140625,0.5556640625,-0.19921875
1969/12/31/18:00:09.490,4,1730348545,175086083,RU_myo,-0.4863685243696155,-0.7353813966783156,0.2470598301729455,-0.4020215171317175,-19.875,-7.625,-1.1875,0.8427734375,0.52783203125,-0.18212890625
1969/12/31/18:00:09.514,5,1730348545,198284824,RU_myo,-0.4883837097051827,-0.7343455130183402,0.2483420788290912,-0.4006797118488533,-15.625,-5.3125,-2.375,0.83154296875,0.50634765625,-0.1787109375
1969/12/31/18:00:09.536,6,1730348545,219261164,RU_myo,-0.4892272672144956,-0.7337798694760331,0.2492520158812375,-0.4001215024773246,-7.625,-4.0625,-1.5,0.83984375,0.4814453125,-0.1796875
1969/12/31/18:00:09.552,7,1730348545,235079989,RU_myo,-0.488928524700274,-0.7338505281483079,0.2496214787197753,-0.4001267517082756,0.25,-2.3125,-0.25,0.83935546875,0.4775390625,-0.193359375
1969/12/31/18:00:09.577,8,1730348545,258206544,RU_myo,-0.4880700350199299,-0.7343327074352628,0.2494973494012096,-0.4003675665538002,5.125,-0.9375,-0.1875,0.83447265625,0.49072265625,-0.2060546875
1969/12/31/18:00:09.599,9,1730348545,279292701,RU_myo,-0.4874019657787508,-0.7349479679323463,0.2488887072934818,-0.4004312919452021,5.3125,0.6875,-1.9375,0.82568359375,0.51611328125,-0.2177734375
1969/12/31/18:00:09.623,10,1730348545,303255371,RU_myo,-0.4873229850146126,-0.7354091383125964,0.2483913023180304,-0.3999893354772412,1.625,-0.125,-2.3125,0.81787109375,0.53515625,-0.23046875
1969/12/31/18:00:09.639,11,1730348545,318172726,RU_myo,-0.4876051096009028,-0.735588531845047,0.2485327332951403,-0.3992270649517468,-3.125,-2.125,-1.6875,0.82861328125,0.5322265625,-0.23388671875
1969/12/31/18:00:09.661,12,1730348545,339395049,RU_myo,-0.487886006000953,-0.7356739950382146,0.2491306825739167,-0.3983527597158144,-4.375,-3.875,-1.1875,0.83642578125,0.51513671875,-0.23046875
1969/12/31/18:00:09.685,13,1730348545,363148114,RU_myo,-0.4878956507018088,-0.7358716362911819,0.2496849020541781,-0.3976282417215767,-3.1875,-3.5625,-1.3125,0.837890625,0.5029296875,-0.23583984375
1969/12/31/18:00:09.701,14,1730348545,378176534,RU_myo,-0.4876386095236015,-0.7362793723770625,0.2501665407305685,-0.3968853413932391,-0.8125,-4.625,-1.5,0.841796875,0.50390625,-0.23046875
1969/12/31/18:00:09.732,15,1730348545,408223914,RU_myo,-0.4871705685354415,-0.7367981838336068,0.2502989854126592,-0.3964135357852283,1.75,-3.6875,-1.25,0.8330078125,0.51171875,-0.22265625
1969/12/31/18:00:09.740,16,1730348545,415681706,RU_myo,-0.4870379141967809,-0.7372704265033976,0.2500494153463923,-0.3958556280050527,1.5625,-2.375,-2.3125,0.81689453125,0.5224609375,-0.2197265625
1969/12/31/18:00:09.763,17,1730348545,438164073,RU_myo,-0.4870943325216524,-0.7375686014940697,0.249741888068989,-0.3954246561092327,0.25,-1.0625,-2.6875,0.826171875,0.5283203125,-0.2197265625
1969/12/31/18:00:09.787,18,1730348545,460810891,RU_myo,-0.4874130545012146,-0.7377111933078113,0.2492605703209317,-0.3950694592770301,-0.625,0.5,-3.8125,0.8349609375,0.5302734375,-0.2275390625
1969/12/31/18:00:09.802,19,1730348545,475164861,RU_myo,-0.4877039641617248,-0.7379947859646574,0.2486429670873316,-0.3945696569022089,-0.875,0.75,-5.5,0.84326171875,0.53076171875,-0.2431640625
1969/12/31/18:00:09.826,20,1730348545,498206480,RU_myo,-0.488385161453201,-0.7381927677801133,0.2476714552833154,-0.39396728532622,-2.125,2.1875,-7.5,0.83056640625,0.52880859375,-0.240234375
1969/12/31/18:00:09.849,21,1730348545,520677125,RU_myo,-0.4894858985844286,-0.7382570360694823,0.246757043388634,-0.39305351457403,-4.375,1.75,-8.9375,0.830078125,0.5361328125,-0.2421875
1969/12/31/18:00:09.864,22,1730348545,535175793,RU_myo,-0.4907694394230278,-0.7385649777960527,0.2454152364034317,-0.3917122574576536,-5.0,1.25,-12.625,0.8349609375,0.54931640625,-0.25146484375
1969/12/31/18:00:09.888,23,1730348545,558225048,RU_myo,-0.4929710218818707,-0.7388156765977523,0.242853992332297,-0.3900678223160871,-7.0,5.6875,-20.25,0.845703125,0.56494140625,-0.27001953125
1969/12/31/18:00:09.911,24,1730348545,580790828,RU_myo,-0.4958433336873894,-0.7390653529813637,0.238949612430592,-0.388361783881445,-6.3125,9.75,-26.4375,0.85498046875,0.6064453125,-0.26123046875
1969/12/31/18:00:09.933,25,1730348545,601807595,RU_myo,-0.4993091210432295,-0.7397782491339671,0.2339386213126388,-0.3856050637759594,-6.8125,11.125,-29.875,0.83544921875,0.72216796875,-0.30810546875
1969/12/31/18:00:09.951,26,1730348545,618896290,RU_myo,-0.5039473049162199,-0.7408153551014989,0.2284455325543673,-0.3808442754847053,-12.4375,5.6875,-36.4375,0.8076171875,0.79736328125,-0.31591796875
1969/12/31/18:00:09.974,27,1730348545,640777551,RU_myo,-0.510599436685617,-0.7399602642094694,0.2242951147286209,-0.3760834005327244,-24.125,-0.8125,-38.4375,0.8564453125,0.751953125,-0.158203125
1969/12/31/18:00:09.995,28,1730348545,661853695,RU_myo,-0.5192513152419971,-0.7365214941631901,0.2192842002426534,-0.3739366253511655,-30.875,14.5625,-39.25,0.94873046875,0.77685546875,-0.04833984375
1969/12/31/18:00:10.012,29,1730348545,678246316,RU_myo,-0.529028836178465,-0.7320225958842304,0.2102566152093691,-0.374250671832758,-25.375,37.625,-52.75,0.95751953125,0.763671875,0.02734375
1969/12/31/18:00:10.036,30,1730348545,700787474,RU_myo,-0.5384400874227858,-0.7266682930010981,0.1972001725757221,-0.3783484586186634,-8.375,60.75,-61.0625,0.97216796875,0.71728515625,0.17236328125
1969/12/31/18:00:10.058,31,1730348545,721704569,RU_myo,-0.5474812092999755,-0.7206366374810268,0.1803575221272494,-0.3852509914271399,3.3125,85.125,-67.0,1.0341796875,0.796875,0.2099609375
1969/12/31/18:00:10.074,32,1730348545,738240395,RU_myo,-0.5594166060411597,-0.7125451533417565,0.1619781444941346,-0.3912742593639401,-23.375,107.25,-76.5625,1.1015625,0.89453125,0.30615234375
1969/12/31/18:00:10.098,33,1730348545,760773080,RU_myo,-0.5796718005067472,-0.6967291297731129,0.1438499088012637,-0.3973113730573725,-82.8125,132.6875,-84.5625,0.92724609375,0.970703125,0.35400390625
1969/12/31/18:00:10.120,34,1730348545,781727619,RU_myo,-0.6086081918340754,-0.6709825973750326,0.1276173013563028,-0.4038468116091133,-155.25,158.6875,-87.0625,0.83984375,0.92919921875,0.38818359375
1969/12/31/18:00:10.138,35,1730348545,798322928,RU_myo,-0.6429701055931262,-0.6357683521560129,0.1107727329522092,-0.4124529637967106,-206.8125,195.8125,-89.5,0.7998046875,0.7880859375,0.44287109375
1969/12/31/18:00:10.167,36,1730348545,826851302,RU_myo,-0.6780055737441462,-0.5937202467713614,0.0927687885580252,-0.4233186298937256,-231.75,226.8125,-83.75,0.7900390625,0.740234375,0.42431640625
1969/12/31/18:00:10.182,37,1730348545,841824433,RU_myo,-0.7115961121362288,-0.5454003652156565,0.0760484394649404,-0.4363324989846384,-253.8125,245.0625,-64.6875,0.7666015625,0.69775390625,0.48388671875
1969/12/31/18:00:10.199,38,1730348545,858255551,RU_myo,-0.7401270453461813,-0.4948420948022461,0.0608482447604636,-0.4512657189156152,-250.25,249.6875,-39.9375,0.822265625,0.6201171875,0.55810546875
1969/12/31/18:00:10.231,39,1730348545,888257881,RU_myo,-0.7617937338653942,-0.4462614790917931,0.0455904437748317,-0.4673783379219026,-222.125,248.4375,-19.875,0.87744140625,0.48095703125,0.52978515625
1969/12/31/18:00:10.245,40,1730348545,901718565,RU_myo,-0.7760838368119664,-0.4018351668425595,0.0282578496731629,-0.4852049781892995,-178.375,250.0625,0.1875,0.8837890625,0.3818359375,0.5849609375
1969/12/31/18:00:10.261,41,1730348545,917559300,RU_myo,-0.7826792073293275,-0.3643632928693142,0.0087886623405663,-0.5045546636768208,-123.75,242.9375,22.9375,0.81591796875,0.34912109375,0.6064453125
1969/12/31/18:00:10.286,42,1730348545,941522203,RU_myo,-0.7824327024867832,-0.3357380886411696,-0.012633663760902,-0.5243275621734754,-64.5,226.1875,41.8125,0.70263671875,0.3447265625,0.5634765625
1969/12/31/18:00:10.307,43,1730348545,961784793,RU_myo,-0.7764667337434014,-0.3154815710359724,-0.0380237993336062,-0.5441736675095242,-4.5625,220.0,51.9375,0.65625,0.31689453125,0.50927734375
1969/12/31/18:00:10.324,44,1730348545,977657732,RU_myo,-0.7658869417749041,-0.3007642719791798,-0.0687827383361476,-0.5641161050940664,45.875,227.375,58.8125,0.59423828125,0.3046875,0.53369140625
1969/12/31/18:00:10.347,45,1730348546,655825,RU_myo,-0.7517179848992885,-0.2922771315809607,-0.1021047486186985,-0.5822961186915736,87.9375,216.4375,60.8125,0.52685546875,0.34521484375,0.5693359375
1969/12/31/18:00:10.369,46,1730348546,21818917,RU_myo,-0.7348902673052189,-0.2895983986681557,-0.1367124158096246,-0.5978116575246756,122.625,198.0625,60.75,0.4013671875,0.48193359375,0.58251953125
1969/12/31/18:00:10.386,47,1730348546,37633664,RU_myo,-0.716880387071093,-0.2873380608148055,-0.1692413854374375,-0.6122717557549128,117.5,186.375,64.5,0.34033203125,0.61865234375,0.5185546875
1969/12/31/18:00:10.410,48,1730348546,60553742,RU_myo,-0.700280720414129,-0.2797705091841003,-0.1968891061579205,-0.6265541115366435,75.125,183.1875,62.1875,0.279296875,0.67919921875,0.443359375
1969/12/31/18:00:10.431,49,1730348546,81793380,RU_myo,-0.6872376876003451,-0.2668386474412707,-0.2180118135087418,-0.639509457431298,27.3125,169.5625,48.0625,0.244140625,0.68017578125,0.55322265625
1969/12/31/18:00:10.448,50,1730348546,97697504,RU_myo,-0.676168791444091,-0.2531589626238911,-0.2344222698742444,-0.6509627520121558,4.0625,147.8125,42.375,0.14208984375,0.7724609375,0.4814453125
1969/12/31/18:00:10.479,51,1730348546,128216283,RU_myo,-0.6669491447969362,-0.2365569990147259,-0.2434535265917806,-0.6632872717471727,-38.5,127.625,46.125,0.0322265625,0.63623046875,0.3330078125
1969/12/31/18:00:10.494,52,1730348546,141762275,RU_myo,-0.6584801087160139,-0.2187406348723879,-0.2463273444042851,-0.6766678065932381,-67.3125,108.875,54.1875,0.01318359375,0.537109375,0.4150390625
1969/12/31/18:00:10.510,53,1730348546,157531210,RU_myo,-0.6487836533326236,-0.2070248496805511,-0.2479781734233725,-0.6890045778430844,-42.8125,82.375,64.375,0.0,0.43701171875,0.5771484375
1969/12/31/18:00:10.534,54,1730348546,180673913,RU_myo,-0.6363107092454552,-0.2040271150016839,-0.2534013106452263,-0.6994779434742147,6.1875,62.9375,76.5,-0.0078125,0.48388671875,0.52880859375
1969/12/31/18:00:10.556,55,1730348546,201793731,RU_myo,-0.6231856358479874,-0.2041480708952617,-0.2613949738847253,-0.7082625897577018,20.1875,58.375,74.4375,-0.01171875,0.630859375,0.44775390625
1969/12/31/18:00:10.573,56,1730348546,217461012,RU_myo,-0.6121267124066851,-0.2038998351097442,-0.2682250150575654,-0.7153887659851608,14.125,50.0625,61.5625,-0.025390625,0.72900390625,0.55419921875
1969/12/31/18:00:10.597,57,1730348546,240755338,RU_myo,-0.6018781554712445,-0.2061594412068407,-0.275367495182139,-0.7207036238044946,30.125,39.25,53.9375,0.00146484375,0.77685546875,0.677734375
1969/12/31/18:00:10.618,58,1730348546,261905755,RU_myo,-0.5929068592153361,-0.2084175938466673,-0.2807381937612502,-0.7254030806622218,23.5,32.75,46.8125,0.04443359375,0.74267578125,0.654296875
1969/12/31/18:00:10.635,59,1730348546,277651036,RU_myo,-0.5853385289896441,-0.2107975476102836,-0.2850100021250795,-0.7291861895911028,20.0,24.75,39.625,0.04150390625,0.74169921875,0.65087890625
1969/12/31/18:00:10.659,60,1730348546,300798620,RU_myo,-0.5789392643461901,-0.2129368641475708,-0.2886151993562231,-0.7322489240592018,15.0625,18.9375,34.1875,0.01953125,0.74462890625,0.61572265625
1969/12/31/18:00:10.683,61,1730348546,323362366,RU_myo,-0.5734649962625745,-0.2147747256117496,-0.2908217014890557,-0.7351411111092709,6.625,15.0625,29.9375,0.0390625,0.7890625,0.640625
1969/12/31/18:00:10.705,62,1730348546,344353393,RU_myo,-0.5694797450171348,-0.2155612966885135,-0.2914837918981712,-0.7377420595613681,-1.875,12.75,22.0,0.06396484375,0.79150390625,0.70166015625
1969/12/31/18:00:10.721,63,1730348546,360692127,RU_myo,-0.5659938913349509,-0.2158637474284797,-0.2914191105374585,-0.7403571162156879,0.1875,11.625,19.875,0.0703125,0.70068359375,0.7578125
1969/12/31/18:00:10.745,64,1730348546,383274515,RU_myo,-0.561907356709308,-0.217756646979343,-0.2935564663594843,-0.7420692462505134,16.1875,11.375,20.1875,0.060546875,0.69970703125,0.72607421875
1969/12/31/18:00:10.768,65,1730348546,405762281,RU_myo,-0.5579508350765128,-0.2197747710687511,-0.2963083903190188,-0.7433648185552315,17.6875,11.375,18.25,0.05078125,0.74169921875,0.724609375
1969/12/31/18:00:10.783,66,1730348546,420637613,RU_myo,-0.5544726951077088,-0.2219111413771743,-0.2989331051885038,-0.7442811796189883,22.375,8.4375,16.375,0.03759765625,0.689453125,0.75048828125
1969/12/31/18:00:10.806,67,1730348546,443219110,RU_myo,-0.5502481263586437,-0.2252624039917651,-0.3022824944381502,-0.7450564692309587,34.625,6.3125,20.0,0.041015625,0.61083984375,0.740234375
1969/12/31/18:00:10.829,68,1730348546,464343475,RU_myo,-0.5449992708212007,-0.2302667691834703,-0.3082633053659445,-0.7449340537114867,53.9375,8.3125,20.9375,0.041015625,0.5869140625,0.6962890625
1969/12/31/18:00:10.846,69,1730348546,480738228,RU_myo,-0.5396454805258303,-0.2350344656757489,-0.3149864651655519,-0.7445301082260352,59.8125,11.0625,19.5,0.0380859375,0.51904296875,0.66552734375
1969/12/31/18:00:10.870,70,1730348546,503282231,RU_myo,-0.53311121349568,-0.2425396637014118,-0.32377275187116,-0.7430599913348489,68.5625,9.1875,20.6875,0.10400390625,0.8349609375,0.68701171875
1969/12/31/18:00:10.891,71,1730348546,524329472,RU_myo,-0.5276247126620337,-0.2479744600978418,-0.332016013520123,-0.7415431184318924,47.875,14.5625,12.6875,0.11279296875,1.16845703125,0.75439453125
1969/12/31/18:00:10.908,72,1730348546,540793398,RU_myo,-0.5268377063263839,-0.2448647912165723,-0.332142122083895,-0.7430779743424147,-15.9375,16.5,2.6875,0.00439453125,1.03271484375,0.80517578125
1969/12/31/18:00:10.932,73,1730348546,563305400,RU_myo,-0.5298102752842013,-0.2362510742570145,-0.3248681137354917,-0.7469586406178251,-64.5625,10.8125,-3.0,-0.06982421875,0.708984375,0.7314453125
1969/12/31/18:00:10.954,74,1730348546,584294067,RU_myo,-0.5319441408174806,-0.2294756734136906,-0.3177261584552322,-0.7506173689667501,-55.0625,6.75,0.3125,-0.021484375,0.59033203125,0.6826171875
1969/12/31/18:00:10.970,75,1730348546,600697511,RU_myo,-0.5321828355097042,-0.2261166749499374,-0.3149765612460531,-0.7526237072827606,-20.9375,9.0625,1.8125,0.01904296875,0.62060546875,0.7041015625
1969/12/31/18:00:10.993,76,1730348546,623293386,RU_myo,-0.5314595895585635,-0.2255712727386829,-0.3162636188668438,-0.752758679101438,9.25,7.25,1.5625,-0.00927734375,0.62939453125,0.71435546875
1969/12/31/18:00:11.016,77,1730348546,644277624,RU_myo,-0.5298878019104067,-0.2286293142082911,-0.3209721205075822,-0.7509490341748035,36.0,1.0625,1.3125,-0.0107421875,0.7197265625,0.70361328125
1969/12/31/18:00:11.033,78,1730348546,660709839,RU_myo,-0.5286024156982565,-0.2336323804748789,-0.3261576387820671,-0.7480752579625367,41.0,-6.9375,-1.5,0.015625,0.841796875,0.70849609375
1969/12/31/18:00:11.056,79,1730348546,683987410,RU_myo,-0.5291362201278046,-0.2370432617043129,-0.3290165354912335,-0.7453680111212084,23.25,-8.8125,-10.0,0.04248046875,0.83935546875,0.69384765625
1969/12/31/18:00:11.078,80,1730348546,704329665,RU_myo,-0.5312012723408654,-0.2362454187995737,-0.327118430577555,-0.744987813817204,-0.5,-3.0,-13.125,0.08984375,0.62744140625,0.80322265625
1969/12/31/18:00:11.095,81,1730348546,720798735,RU_myo,-0.5310325700273453,-0.2361297567447189,-0.3264559495547948,-0.7454352155285594,7.6875,4.6875,-3.3125,0.1181640625,0.64306640625,0.8095703125
1969/12/31/18:00:11.119,82,1730348546,743967593,RU_myo,-0.5292092061174349,-0.2360110713938555,-0.3298784176063586,-0.7452627858263174,17.75,15.625,0.6875,0.03515625,0.80126953125,0.73974609375
1969/12/31/18:00:11.141,83,1730348546,764357633,RU_myo,-0.5292143975057154,-0.2331448504753584,-0.3331163858362582,-0.7447208024869957,-1.0625,18.875,-8.5625,-0.0634765625,0.9189453125,0.69287109375
1969/12/31/18:00:11.157,84,1730348546,780730968,RU_myo,-0.5315189547437984,-0.2267911856502417,-0.3329240898067999,-0.7451274449956407,-29.0625,22.625,-20.5625,-0.01708984375,0.890625,0.71826171875
1969/12/31/18:00:11.181,85,1730348546,803903703,RU_myo,-0.5343359280989793,-0.2186169382582003,-0.3315263005635243,-0.7461783046188603,-35.9375,29.5625,-25.6875,0.03173828125,0.7744140625,0.74169921875
1969/12/31/18:00:11.204,86,1730348546,825812964,RU_myo,-0.5363682713311989,-0.2094692657269771,-0.3303779531993377,-0.7478516646132432,-30.1875,38.0,-23.8125,0.0419921875,0.6640625,0.80712890625
1969/12/31/18:00:11.219,87,1730348546,840795477,RU_myo,-0.5362247260024541,-0.2025642915549903,-0.3342707516862555,-0.7481268713109586,6.25,47.4375,-20.6875,0.03662109375,0.64306640625,0.845703125
1969/12/31/18:00:11.243,88,1730348546,863278186,RU_myo,-0.5339605387099415,-0.1981067446168099,-0.3437267978071083,-0.7466537010603983,39.0625,55.9375,-19.375,0.0283203125,0.69775390625,0.79296875
1969/12/31/18:00:11.265,89,1730348546,884371129,RU_myo,-0.5312144883313266,-0.1925530458048409,-0.3542853980656423,-0.7451284108498583,40.0,63.8125,-19.625,-0.015625,0.70263671875,0.75732421875
1969/12/31/18:00:11.281,90,1730348546,900187378,RU_myo,-0.5275576356168127,-0.1865737727996987,-0.3658237468633937,-0.7436707299850603,44.5,68.25,-14.9375,-0.08056640625,0.69677734375,0.74658203125
1969/12/31/18:00:11.306,91,1730348546,923223506,RU_myo,-0.5233578390995156,-0.1808407320410338,-0.3776110729456213,-0.7421610872828116,41.4375,68.375,-12.3125,-0.1064453125,0.72900390625,0.6455078125
1969/12/31/18:00:11.327,92,1730348546,944329700,RU_myo,-0.519685972824714,-0.1729641863752483,-0.3870027896278933,-0.7417807767130445,19.5,69.75,-13.25,-0.1240234375,0.73681640625,0.60205078125
1969/12/31/18:00:11.350,93,1730348546,966866108,RU_myo,-0.5163808679905122,-0.1631961282362167,-0.393648102888406,-0.7428048155433783,1.4375,70.9375,-12.3125,-0.12939453125,0.7021484375,0.6201171875
1969/12/31/18:00:11.368,94,1730348546,983222261,RU_myo,-0.5119943916630239,-0.1537997218966289,-0.3996351503885422,-0.7446469868495118,2.0,70.125,-2.6875,-0.1494140625,0.6064453125,0.58837890625
1969/12/31/18:00:11.390,95,1730348547,4331937,RU_myo,-0.5066877157347575,-0.1456833988748333,-0.4057407774276882,-0.7466045322311838,4.625,66.1875,5.4375,-0.16357421875,0.572265625,0.5244140625
1969/12/31/18:00:11.405,96,1730348547,20170642,RU_myo,-0.4999862346894967,-0.1392783920363075,-0.4122811298007264,-0.7487586825159602,14.625,63.75,16.0,-0.1806640625,0.5576171875,0.5439453125
1969/12/31/18:00:11.429,97,1730348547,43215698,RU_myo,-0.4913608852694893,-0.1352447797487502,-0.4201986952031343,-0.7508038269265008,29.5625,62.25,28.125,-0.1826171875,0.56591796875,0.55029296875
1969/12/31/18:00:11.452,98,1730348547,64360436,RU_myo,-0.4822754961842591,-0.1329278702466864,-0.429055522421582,-0.7520983218778315,31.9375,55.5,32.1875,-0.22314453125,0.6806640625,0.45654296875
1969/12/31/18:00:11.468,99,1730348547,80232236,RU_myo,-0.4740980883990628,-0.1308530254283716,-0.4356478057405394,-0.7538696688858424,17.4375,44.0,33.4375,-0.26318359375,0.73876953125,0.4248046875
1969/12/31/18:00:11.492,100,1730348547,103222383,RU_myo,-0.466705573298488,-0.1299964523506969,-0.4407062828283486,-0.7556882971860701,18.0,31.5,37.3125,-0.3046875,0.68603515625,0.45556640625
1969/12/31/18:00:11.514,101,1730348547,124303630,RU_myo,-0.4596188307557443,-0.1315201939023541,-0.4457039332106228,-0.7568361598993473,24.8125,20.3125,40.3125,-0.310546875,0.73681640625,0.4677734375
1969/12/31/18:00:11.530,102,1730348547,140099900,RU_myo,-0.4531038556264164,-0.1341490132902563,-0.4498691432950317,-0.7578381701661117,21.25,11.4375,39.875,-0.2919921875,0.76611328125,0.4267578125
1969/12/31/18:00:11.555,103,1730348547,163325711,RU_myo,-0.4471201012543358,-0.1384815055618465,-0.4537115523784783,-0.7583220390506582,26.0,2.9375,39.0,-0.25439453125,0.7802734375,0.43115234375
1969/12/31/18:00:11.577,104,1730348547,184340861,RU_myo,-0.4416304602790971,-0.1441585333304626,-0.4574988847777932,-0.758205529028085,34.1875,-3.1875,38.5625,-0.21484375,0.72216796875,0.44873046875
1969/12/31/18:00:11.599,105,1730348547,206819457,RU_myo,-0.43595587188899,-0.1508725906915278,-0.4611623362723237,-0.7579638769409724,34.0625,-7.25,40.4375,-0.193359375,0.75830078125,0.41845703125
1969/12/31/18:00:11.617,106,1730348547,223282317,RU_myo,-0.4303329699351157,-0.1582546292783654,-0.4640833787245241,-0.7578889264862101,31.8125,-11.375,41.8125,-0.17236328125,0.86181640625,0.45361328125
1969/12/31/18:00:11.639,107,1730348547,244308169,RU_myo,-0.4254573927961575,-0.1642994263961061,-0.4636637230056532,-0.7596102009383124,7.75,-13.0,40.8125,-0.1474609375,0.9423828125,0.49072265625
1969/12/31/18:00:11.662,108,1730348547,266785613,RU_myo,-0.4221075854631669,-0.1679641519945973,-0.4591549111393009,-0.7634068361731192,-19.8125,-15.0,37.8125,-0.14208984375,0.9052734375,0.5224609375
1969/12/31/18:00:11.678,109,1730348547,283260177,RU_myo,-0.4198344871808038,-0.1708266796945878,-0.4525472775760517,-0.767957167058592,-31.625,-18.375,35.5625,-0.12841796875,0.84619140625,0.54150390625
1969/12/31/18:00:11.702,110,1730348547,305806065,RU_myo,-0.4174438625335673,-0.1739349427223197,-0.4461889004360981,-0.7722711456870995,-28.875,-18.125,34.0,-0.08642578125,0.8330078125,0.548828125
1969/12/31/18:00:11.724,111,1730348547,326722838,RU_myo,-0.4151369484883876,-0.1775409266616759,-0.4411364104195921,-0.7755895826801573,-20.3125,-17.5625,30.4375,-0.06298828125,0.86083984375,0.55908203125
1969/12/31/18:00:11.742,112,1730348547,343312655,RU_myo,-0.4128766830986395,-0.1813239653342288,-0.4374112620499556,-0.7780268966949678,-11.375,-16.375,27.75,-0.056640625,0.865234375,0.58056640625
1969/12/31/18:00:11.764,113,1730348547,365829032,RU_myo,-0.410392654044738,-0.1855433772004764,-0.4348672903136167,-0.7797704562872656,-3.25,-15.625,26.25,-0.03466796875,0.87255859375,0.576171875
1969/12/31/18:00:11.786,114,1730348547,386775855,RU_myo,-0.407522486084707,-0.1898150264674912,-0.4330956359528353,-0.781232263274562,-1.4375,-13.6875,27.0,-0.02978515625,0.884765625,0.53955078125
1969/12/31/18:00:11.804,115,1730348547,403247843,RU_myo,-0.405324904952393,-0.1933548108551695,-0.4313863014912684,-0.7824522333217405,-7.6875,-14.0625,24.0625,-0.0673828125,0.9287109375,0.484375
1969/12/31/18:00:11.827,116,1730348547,425738993,RU_myo,-0.4044655257065362,-0.1957937839846942,-0.427658056228414,-0.7843347624648707,-18.625,-17.25,20.8125,-0.08740234375,0.88671875,0.53369140625
1969/12/31/18:00:11.849,117,1730348547,446795330,RU_myo,-0.4042828921243509,-0.1985404963889664,-0.4228369378981738,-0.7863497557563612,-18.4375,-20.4375,17.3125,-0.01904296875,0.83056640625,0.5927734375
1969/12/31/18:00:11.866,118,1730348547,463292330,RU_myo,-0.4045073753160998,-0.2016433868503913,-0.4183612036499494,-0.7878373126064474,-15.8125,-21.9375,13.0625,0.0087890625,0.82470703125,0.5888671875
1969/12/31/18:00:11.889,119,1730348547,485705354,RU_myo,-0.4056211807235436,-0.2037260760239525,-0.4133112602858618,-0.789392770309707,-25.375,-22.1875,9.6875,-0.01904296875,0.83544921875,0.544921875
1969/12/31/18:00:11.911,120,1730348547,506858043,RU_myo,-0.4067712987128699,-0.2053691553141496,-0.4077477939535909,-0.7912662997467904,-28.75,-21.4375,10.4375,-0.01904296875,0.80908203125,0.55712890625
1969/12/31/18:00:11.928,121,1730348547,523230676,RU_myo,-0.4071486425091346,-0.208121251829733,-0.403181521873084,-0.7926917357080858,-22.25,-21.75,12.125,0.021484375,0.8037109375,0.5126953125
1969/12/31/18:00:11.951,122,1730348547,545748911,RU_myo,-0.4067006628446711,-0.2104297547251539,-0.3987668263846159,-0.7945432067189035,-11.875,-12.9375,10.75,0.119140625,0.91259765625,0.7841796875
1969/12/31/18:00:11.973,123,1730348547,566760783,RU_myo,-0.4069557451995416,-0.2111067670433734,-0.3974959160894742,-0.7948697698678509,-0.1875,-1.0625,-4.5,0.13916015625,0.978515625,0.8173828125
1969/12/31/18:00:11.991,124,1730348547,583270202,RU_myo,-0.4075851011718346,-0.209407679263337,-0.39250970135311,-0.7974703402083246,-26.0,-1.1875,3.875,0.03515625,0.65673828125,0.62744140625
1969/12/31/18:00:12.014,125,1730348547,605665044,RU_myo,-0.4061758243408499,-0.2103203442041425,-0.3892696330046492,-0.7995346805206813,-13.9375,-4.75,15.375,0.0517578125,0.69482421875,0.5654296875
1969/12/31/18:00:12.035,126,1730348547,626819962,RU_myo,-0.4029874164305165,-0.2144017558564901,-0.3904150390589147,-0.7995055513008884,25.125,-2.875,13.6875,0.18017578125,0.8125,0.73193359375
1969/12/31/18:00:12.053,127,1730348547,643224171,RU_myo,-0.3988939264896529,-0.2169626543253849,-0.3935842919112257,-0.7993136100420721,35.25,10.5,11.625,0.18359375,0.80615234375,0.76025390625
1969/12/31/18:00:12.076,128,1730348547,665801400,RU_myo,-0.3950111656833512,-0.2167312498982664,-0.3976356218212351,-0.7992994786448036,22.4375,19.625,11.5,0.04345703125,0.83984375,0.609375
1969/12/31/18:00:12.098,129,1730348547,686749427,RU_myo,-0.3922994223654186,-0.2152520321535207,-0.4021862466378513,-0.7987577535654322,16.5,18.875,7.5625,-0.0634765625,0.8369140625,0.505859375
1969/12/31/18:00:12.114,130,1730348547,702629003,RU_myo,-0.3910986558703709,-0.2143474530925004,-0.4054413812339067,-0.7979437932036876,9.5,10.5,1.6875,-0.046875,0.78662109375,0.43798828125
1969/12/31/18:00:12.138,131,1730348547,725821006,RU_myo,-0.3906686971774395,-0.21477318315379,-0.4067202308999308,-0.7973889280773703,0.4375,1.6875,-0.5625,0.03271484375,0.81982421875,0.439453125
1969/12/31/18:00:12.160,132,1730348547,746694284,RU_myo,-0.3910936553387192,-0.2161756752824194,-0.4065347750017491,-0.7968960452181113,-9.0,-6.5625,-1.3125,0.06201171875,0.912109375,0.43701171875
1969/12/31/18:00:12.178,133,1730348547,763303750,RU_myo,-0.3933392624394923,-0.2170231834344196,-0.403958507073235,-0.7968705585217147,-31.75,-15.0,-4.25,0.01611328125,0.98779296875,0.36572265625
1969/12/31/18:00:12.200,134,1730348547,785756662,RU_myo,-0.3999331081906608,-0.2178790166703279,-0.3953558179244774,-0.7976691170535536,-75.1875,-40.125,-10.875,-0.052734375,0.95947265625,0.2177734375
1969/12/31/18:00:12.222,135,1730348547,806715827,RU_myo,-0.4116495437890823,-0.219159897960948,-0.374421045388587,-0.8014502311398412,-124.6875,-76.625,-14.0,-0.08935546875,0.783203125,-0.00830078125
1969/12/31/18:00:12.239,136,1730348547,823204965,RU_myo,-0.4270460347113884,-0.2239290983787457,-0.348130710589361,-0.8039231626723465,-144.125,-114.0625,-20.875,-0.02294921875,0.7451171875,-0.10107421875
1969/12/31/18:00:12.263,137,1730348547,845720498,RU_myo,-0.4458224982684903,-0.2318521110091711,-0.3182092410639163,-0.8038841816827591,-150.5,-146.25,-32.9375,0.09814453125,0.6708984375,0.00048828125
1969/12/31/18:00:12.285,138,1730348547,866846437,RU_myo,-0.4666993343481181,-0.2414972232268214,-0.2847067339785499,-0.8017561338212669,-158.3125,-168.5,-41.375,0.22900390625,0.53564453125,0.162109375
1969/12/31/18:00:12.302,139,1730348547,884114099,RU_myo,-0.4875313902313641,-0.2523713443423498,-0.2501741573057538,-0.797517861311121,-153.125,-179.125,-44.125,0.33203125,0.42041015625,0.35009765625
1969/12/31/18:00:12.325,140,1730348547,905711288,RU_myo,-0.5066713209994137,-0.2667012373846588,-0.2166566116053865,-0.7907050873125034,-130.6875,-193.25,-40.4375,0.38671875,0.3701171875,0.4912109375
1969/12/31/18:00:12.347,141,1730348547,926746559,RU_myo,-0.5241366190752473,-0.2851381327805724,-0.1846196172220101,-0.780956238668708,-106.0,-209.625,-38.5,0.44384765625,0.40283203125,0.52490234375
1969/12/31/18:00:12.363,142,1730348547,942554434,RU_myo,-0.5403883374637253,-0.3067530815555323,-0.1527662083433142,-0.7684695682184058,-90.8125,-226.375,-38.6875,0.52783203125,0.40185546875,0.5712890625
1969/12/31/18:00:12.387,143,1730348547,965750229,RU_myo,-0.5550129737823778,-0.3312134823748586,-0.1216341386351747,-0.7533016423351538,-73.375,-240.25,-38.0,0.56494140625,0.41015625,0.578125
1969/12/31/18:00:12.417,144,1730348547,994328337,RU_myo,-0.5660775879086977,-0.3599093839242684,-0.091304805553791,-0.7359924132173569,-49.0625,-257.1875,-28.1875,0.646484375,0.4443359375,0.54931640625
1969/12/31/18:00:12.426,145,1730348548,2559854,RU_myo,-0.5738759160804483,-0.3912096801101428,-0.0602377463757739,-0.7169329348289935,-37.125,-271.5,-17.125,0.734375,0.48388671875,0.43994140625
1969/12/31/18:00:12.450,146,1730348548,25718722,RU_myo,-0.5804070599876343,-0.424045031839546,-0.0276471501760671,-0.6946575348874083,-34.625,-288.75,-19.25,0.87890625,0.49072265625,0.40478515625
1969/12/31/18:00:12.471,147,1730348548,46755308,RU_myo,-0.5837786341379751,-0.4622623497084186,0.0045164264428865,-0.6674545889109145,-5.0625,-321.75,-23.25,0.96337890625,0.49365234375,0.4619140625
1969/12/31/18:00:12.479,148,1730348548,53697357,RU_myo,-0.5819485923371072,-0.5018734425577381,0.0346056478086145,-0.6389533102440667,22.8125,-325.875,-13.875,0.87890625,0.326171875,0.42431640625
1969/12/31/18:00:12.495,149,1730348548,70077722,RU_myo,-0.5757182816518255,-0.5419063524633264,0.0679900525559348,-0.6084926606666702,25.0,-345.375,3.5625,0.94970703125,0.275390625,0.37353515625
1969/12/31/18:00:12.517,150,1730348548,91086259,RU_myo,-0.5665449576851166,-0.5802767917343626,0.1015545415908686,-0.576187756706365,27.0,-345.4375,6.0,1.50048828125,0.369140625,0.32080078125
1969/12/31/18:00:12.541,151,1730348548,113573077,RU_myo,-0.5595321147309976,-0.612384951920902,0.1343902395983482,-0.5420772516405673,1.25,-329.375,-5.5625,1.51513671875,0.4072265625,0.318359375
1969/12/31/18:00:12.558,152,1730348548,130091264,RU_myo,-0.5528288360136651,-0.6402878470544668,0.1667397195837197,-0.5065664980032479,-12.8125,-322.0625,-7.3125,1.3818359375,0.45361328125,0.29736328125
1969/12/31/18:00:12.580,153,1730348548,151110604,RU_myo,-0.5475208026664882,-0.6605526303934235,0.195730600172938,-0.4749533927489255,-26.875,-277.0625,-4.125,1.3798828125,0.4443359375,0.41357421875
1969/12/31/18:00:12.603,154,1730348548,173650902,RU_myo,-0.5443489234106992,-0.673127511637695,0.2230127779058969,-0.448161693531199,-48.0,-232.625,9.9375,1.29296875,0.5166015625,0.51416015625
1969/12/31/18:00:12.622,155,1730348548,191539688,RU_myo,-0.5431111634313094,-0.6813454352789232,0.2482113834897331,-0.423308127830044,-62.8125,-202.5,11.4375,1.14013671875,0.6484375,0.2841796875
1969/12/31/18:00:12.650,156,1730348548,218638565,RU_myo,-0.5463110855331225,-0.6847351210586639,0.2683033775001235,-0.4008681945907215,-79.6875,-158.6875,-3.4375,1.0888671875,0.71240234375,0.22705078125
1969/12/31/18:00:12.666,157,1730348548,233593498,RU_myo,-0.5514300826833421,-0.6859460652217025,0.2830694768661141,-0.3811489614120057,-77.0625,-124.75,-20.25,1.130859375,0.5419921875,0.2685546875
1969/12/31/18:00:12.682,158,1730348548,250166874,RU_myo,-0.5537348399925549,-0.6842192539575149,0.2927660120626348,-0.3735101091981082,-33.25,-80.0625,-9.3125,1.26513671875,0.4560546875,0.2900390625
1969/12/31/18:00:12.705,159,1730348548,271189041,RU_myo,-0.5517450598528146,-0.6866296375380714,0.2953422947597091,-0.3699865655782923,17.9375,-54.75,-13.5,1.06298828125,0.4697265625,0.26025390625
1969/12/31/18:00:12.736,160,1730348548,301821183,RU_myo,-0.5471493403779127,-0.6922217310168752,0.2940508111478844,-0.3674109346430602,43.125,-40.6875,-16.875,0.92333984375,0.53662109375,0.109375
1969/12/31/18:00:12.744,161,1730348548,310087269,RU_myo,-0.5430632091693961,-0.6967419190692095,0.2903905090164067,-0.3678401844980838,45.5625,-14.75,-16.3125,0.89599609375,0.51806640625,0.04931640625
1969/12/31/18:00:12.766,162,1730348548,331098392,RU_myo,-0.5382405061090992,-0.7012567655282402,0.2841646214359866,-0.3711961399427987,54.4375,10.9375,-15.3125,0.82177734375,0.48388671875,-0.06884765625
1969/12/31/18:00:12.791,163,1730348548,355054005,RU_myo,-0.5319774862982942,-0.7069636557816822,0.2767308309862857,-0.3749965208601101,64.375,16.0,-15.375,0.796875,0.5048828125,-0.15234375
1969/12/31/18:00:12.808,164,1730348548,370181529,RU_myo,-0.5254816276118853,-0.712848479733661,0.2695763471732517,-0.3782125024751281,64.3125,11.75,-15.8125,0.84619140625,0.537109375,-0.1669921875
1969/12/31/18:00:12.830,165,1730348548,391158405,RU_myo,-0.5178736990932122,-0.7180652999212306,0.2639111225549852,-0.3828054025589424,66.125,10.875,-7.375,0.857421875,0.4580078125,-0.1435546875
1969/12/31/18:00:12.852,166,1730348548,413679735,RU_myo,-0.5084620701503565,-0.7214656261249986,0.2614023582347829,-0.3906692727202535,65.8125,14.625,14.625,0.90380859375,0.3388671875,-0.130859375
1969/12/31/18:00:12.868,167,1730348548,428572524,RU_myo,-0.5029807750190466,-0.7223978222455327,0.2599435894680402,-0.3969648053299209,36.5,21.3125,21.5625,0.93017578125,0.552734375,-0.22509765625
1969/12/31/18:00:12.891,168,1730348548,451089953,RU_myo,-0.5035280848056352,-0.721601520806912,0.2574401771769902,-0.3993435465313055,4.25,24.0625,6.8125,0.8369140625,0.6962890625,-0.24365234375
1969/12/31/18:00:12.915,169,1730348548,473689001,RU_myo,-0.5063250646994624,-0.719755483124489,0.2554207323731015,-0.400433793333314,-12.0,23.875,0.5625,0.7421875,0.62646484375,-0.2392578125
1969/12/31/18:00:12.931,170,1730348548,490061033,RU_myo,-0.508225559886648,-0.7177534026980882,0.2570729023949274,-0.4005625494819347,-21.6875,10.375,7.25,0.76220703125,0.5068359375,-0.27197265625
1969/12/31/18:00:12.953,171,1730348548,511173709,RU_myo,-0.5082809018461646,-0.7162195464895222,0.2601826950732708,-0.4012294246801976,-15.875,3.4375,12.3125,0.8232421875,0.43115234375,-0.2666015625
1969/12/31/18:00:12.977,172,1730348548,533553055,RU_myo,-0.5062468854472366,-0.7158861924407578,0.2620643913333856,-0.4031665973796799,1.375,6.25,13.1875,0.8212890625,0.4091796875,-0.25927734375
1969/12/31/18:00:12.996,173,1730348548,551517675,RU_myo,-0.5043633415372044,-0.7161422373665969,0.2620687546661127,-0.4050652828875152,8.3125,9.25,9.1875,0.80419921875,0.47900390625,-0.23779296875
1969/12/31/18:00:13.015,174,1730348548,571092717,RU_myo,-0.5041240916787109,-0.7160270997063723,0.2608506498589358,-0.4063508719608785,5.0625,10.75,3.5,0.82470703125,0.5693359375,-0.189453125
1969/12/31/18:00:13.039,175,1730348548,593541885,RU_myo,-0.5053985529452327,-0.7143690450699128,0.2601755864274275,-0.40811497688018,-5.0,14.625,5.6875,0.853515625,0.58203125,-0.15576171875
1969/12/31/18:00:13.055,176,1730348548,608697603,RU_myo,-0.5071255078695547,-0.7114038897253014,0.2609782972259256,-0.4106318951674526,-14.5625,18.5625,11.5625,0.861328125,0.5234375,-0.1689453125
1969/12/31/18:00:13.078,177,1730348548,631147657,RU_myo,-0.5086395283169634,-0.7082137132937417,0.2628642246773652,-0.4130636342271668,-17.5625,15.6875,13.75,0.8623046875,0.47216796875,-0.16845703125
1969/12/31/18:00:13.102,178,1730348548,653562678,RU_myo,-0.5096823383428944,-0.7054745717764959,0.2653082415012049,-0.4148988787037476,-16.375,10.125,14.25,0.85400390625,0.45654296875,-0.16796875
1969/12/31/18:00:13.118,179,1730348548,670075586,RU_myo,-0.5102952483980995,-0.7032199320706737,0.2671405695776201,-0.416792997405887,-11.6875,9.25,12.5625,0.8544921875,0.4541015625,-0.14306640625
1969/12/31/18:00:13.140,180,1730348548,691029337,RU_myo,-0.510673252663463,-0.7016493023328756,0.2675739858583269,-0.418694695024663,-4.1875,10.625,7.9375,0.8671875,0.47998046875,-0.126953125
1969/12/31/18:00:13.140,1,1730348554,280720289,RU_myo,-0.6969755679111349,-0.5957249140438343,0.0608480421372505,-0.3945052601556546,-188.875,195.3125,-92.9375,0.80615234375,0.73486328125,0.396484375
1969/12/31/18:00:13.164,2,1730348554,303282514,RU_myo,-0.7256674077588335,-0.5542292455725792,0.0407692033963751,-0.4056779864905775,-213.5,223.25,-78.6875,0.74169921875,0.6875,0.45263671875
1969/12/31/18:00:13.186,3,1730348554,324417649,RU_myo,-0.7521607940509342,-0.508154071021428,0.0208119791278293,-0.4190470636119534,-225.0,240.25,-62.5,0.69140625,0.62060546875,0.53662109375
1969/12/31/18:00:13.203,4,1730348554,341497881,RU_myo,-0.7735874837733554,-0.4612229281952857,0.0007934230602803,-0.4345517068612458,-213.75,250.0,-42.3125,0.6826171875,0.548828125,0.5732421875
1969/12/31/18:00:13.226,5,1730348554,363310556,RU_myo,-0.7885749296803098,-0.4167771995036635,-0.0206283047931231,-0.4516866383843335,-181.4375,255.25,-23.8125,0.7109375,0.44091796875,0.6171875
1969/12/31/18:00:13.248,6,1730348554,384434790,RU_myo,-0.7963343618761793,-0.3773555609656971,-0.0444917036946455,-0.470611148407972,-134.0625,259.125,-2.125,0.6591796875,0.31689453125,0.65283203125
1969/12/31/18:00:13.271,7,1730348554,406830179,RU_myo,-0.7961704574368039,-0.3459328595440248,-0.0706757677050071,-0.4913735801321355,-75.5625,255.1875,24.5625,0.63623046875,0.31787109375,0.6337890625
1969/12/31/18:00:13.288,8,1730348554,423308342,RU_myo,-0.7899636914089163,-0.3242739003674242,-0.100401009995184,-0.5106108508326503,-9.25,243.3125,32.5,0.58056640625,0.33447265625,0.580078125
1969/12/31/18:00:13.310,9,1730348554,444255503,RU_myo,-0.7784562367976997,-0.3111994003474301,-0.1317669161306337,-0.5289596396962496,45.8125,226.4375,46.4375,0.484375,0.30322265625,0.625
1969/12/31/18:00:13.326,10,1730348554,460091826,RU_myo,-0.7612719445483686,-0.3067548138619498,-0.1648517214964438,-0.546983016679426,99.0,210.8125,66.0625,0.4033203125,0.390625,0.5966796875
1969/12/31/18:00:13.351,11,1730348554,483257021,RU_myo,-0.740294996877447,-0.3064931141235399,-0.1990191248818923,-0.5642842160864695,127.375,204.5625,76.875,0.38427734375,0.41455078125,0.54638671875
1969/12/31/18:00:13.372,12,1730348554,504341721,RU_myo,-0.7198076285990057,-0.3050363343850967,-0.2294791151036341,-0.5798009557139693,109.4375,188.0,73.875,0.2900390625,0.62890625,0.5302734375
1969/12/31/18:00:13.388,13,1730348554,520118721,RU_myo,-0.7003643161392997,-0.3011413974580658,-0.2547556126854411,-0.5948976897089111,75.4375,171.8125,75.0,0.2177734375,0.97021484375,0.40283203125
1969/12/31/18:00:13.413,14,1730348554,543261941,RU_myo,-0.685377083953032,-0.2863570149517031,-0.2743339263017701,-0.6107362848724837,1.875,180.875,56.75,0.20751953125,0.91943359375,0.2314453125
1969/12/31/18:00:13.435,15,1730348554,564331016,RU_myo,-0.6756753178012778,-0.2643256978951616,-0.2865410186141269,-0.6256908461836058,-56.8125,165.9375,36.125,0.0888671875,0.779296875,0.31396484375
1969/12/31/18:00:13.450,16,1730348554,580098371,RU_myo,-0.6669474145176129,-0.2432087707588476,-0.2932542392713332,-0.6403378727231692,-73.375,138.3125,42.6875,-0.03759765625,0.734375,0.357421875
1969/12/31/18:00:13.475,17,1730348554,603290522,RU_myo,-0.6570640455162157,-0.2270368056214306,-0.2964295066944324,-0.6548669151392341,-63.75,108.0625,60.0625,-0.080078125,0.5615234375,0.337890625
1969/12/31/18:00:13.497,18,1730348554,624329377,RU_myo,-0.6453260577675919,-0.2179974161477055,-0.3012416702421821,-0.6672966820154009,-26.5,87.375,69.4375,-0.05615234375,0.3994140625,0.32421875
1969/12/31/18:00:13.528,19,1730348554,654384614,RU_myo,-0.6313111806156078,-0.2198359312236484,-0.3108951231685911,-0.675620143988281,36.8125,64.625,72.6875,-0.01025390625,0.4951171875,0.29833984375
1969/12/31/18:00:13.536,20,1730348554,663235679,RU_myo,-0.6168451184535922,-0.2298445350842216,-0.32633529715755,-0.6783648453162836,104.25,46.5625,63.375,-0.01513671875,0.73486328125,0.3017578125
1969/12/31/18:00:13.559,21,1730348554,684387351,RU_myo,-0.6038961120072772,-0.2424739012637607,-0.3419535033427766,-0.6779260244746675,117.375,30.125,50.625,-0.0126953125,0.92919921875,0.341796875
1969/12/31/18:00:13.575,22,1730348554,700117725,RU_myo,-0.5912836552695513,-0.2554823886208032,-0.3547213670960603,-0.6777057915063065,97.5625,23.125,47.9375,0.06298828125,0.94482421875,0.47802734375
1969/12/31/18:00:13.600,23,1730348554,723310398,RU_myo,-0.5805488160913364,-0.2667765848544187,-0.3647960758807734,-0.6772866076708957,75.875,16.5625,39.6875,0.06640625,1.11328125,0.501953125
1969/12/31/18:00:13.622,24,1730348554,744369626,RU_myo,-0.5751007719839829,-0.2710413380431781,-0.3674712669124017,-0.6787934613186731,11.8125,7.875,26.375,0.005859375,1.1201171875,0.4912109375
1969/12/31/18:00:13.637,25,1730348554,760157091,RU_myo,-0.5743682087856548,-0.2692103037884946,-0.3624665595556268,-0.6828213282216455,-38.125,0.25,17.3125,-0.00439453125,0.89404296875,0.56884765625
1969/12/31/18:00:13.662,26,1730348554,783352098,RU_myo,-0.5740213666372043,-0.2678766377640286,-0.3558261103131208,-0.687116698096932,-34.3125,-6.0,18.5,0.04052734375,0.69189453125,0.60009765625
1969/12/31/18:00:13.684,27,1730348554,804419026,RU_myo,-0.5721814907876553,-0.2694593367282665,-0.352402765632845,-0.6897914889474219,-9.375,-6.125,20.125,0.04833984375,0.76171875,0.61572265625
1969/12/31/18:00:13.707,28,1730348554,826827565,RU_myo,-0.5697306150523195,-0.2731777432216585,-0.3524578791566304,-0.6903291898079043,9.8125,-7.375,16.625,0.00732421875,0.9375,0.6123046875
1969/12/31/18:00:13.724,29,1730348554,843303289,RU_myo,-0.5685097667660183,-0.275863032290113,-0.3524577459016377,-0.6902678971684022,2.625,-7.1875,8.4375,0.01025390625,0.93017578125,0.54833984375
1969/12/31/18:00:13.747,30,1730348554,865826568,RU_myo,-0.5687076151887752,-0.2762974215453515,-0.3495983279460511,-0.691384402753643,-12.625,-8.0625,6.0625,0.0185546875,0.76611328125,0.5791015625
1969/12/31/18:00:13.769,31,1730348554,886899430,RU_myo,-0.5674295001512727,-0.2789846450673838,-0.3488070983504919,-0.6917549698520516,8.9375,-7.6875,9.75,0.0498046875,0.736328125,0.5869140625
1969/12/31/18:00:13.787,32,1730348554,903813894,RU_myo,-0.5651621164425539,-0.2836186128626941,-0.351303795058676,-0.6904620975501741,27.1875,-6.3125,7.5,0.03564453125,0.86328125,0.56787109375
1969/12/31/18:00:13.810,33,1730348554,925821071,RU_myo,-0.5638654053205479,-0.2867236361290111,-0.3549562936837651,-0.6883686445081133,27.0625,0.375,-3.5,0.02783203125,0.984375,0.64404296875
1969/12/31/18:00:13.831,34,1730348554,946858552,RU_myo,-0.5640552551223599,-0.286910166017119,-0.3567304659370475,-0.6872172876734227,15.8125,3.0625,-7.3125,-0.00048828125,0.84814453125,0.70947265625
1969/12/31/18:00:13.856,35,1730348554,970767328,RU_myo,-0.5638769393413341,-0.2864243398992186,-0.3570386508439013,-0.6874062093085231,11.6875,5.125,-2.5,0.02783203125,0.6953125,0.70849609375
1969/12/31/18:00:13.872,36,1730348554,985775531,RU_myo,-0.5621018482074641,-0.2875813147398014,-0.3599648969302523,-0.6868506188628449,26.375,8.625,1.875,0.01318359375,0.68994140625,0.61083984375
1969/12/31/18:00:13.894,37,1730348555,6693549,RU_myo,-0.5590635707315977,-0.2900294856022437,-0.3652223152028254,-0.6855242386962125,40.6875,11.3125,3.8125,-0.0087890625,0.75390625,0.59130859375
1969/12/31/18:00:13.919,38,1730348555,30644306,RU_myo,-0.5557503762325342,-0.2931329955024008,-0.3708867819421381,-0.6838549270465127,42.5625,10.0,4.8125,-0.01416015625,0.81494140625,0.56640625
1969/12/31/18:00:13.934,39,1730348555,45643313,RU_myo,-0.5525278370090593,-0.2958858890776449,-0.375594422727687,-0.6827103042950776,35.25,9.375,6.25,-0.00048828125,0.83642578125,0.54296875
1969/12/31/18:00:13.956,40,1730348555,66780669,RU_myo,-0.5499539908505172,-0.2974060367788891,-0.3790660567276176,-0.6822090455806327,22.8125,10.75,4.625,0.0126953125,0.8779296875,0.54052734375
1969/12/31/18:00:13.974,41,1730348555,83262606,RU_myo,-0.5480725085512355,-0.2975948275830539,-0.3813925507724577,-0.6823441698889546,11.5625,11.9375,2.625,0.01123046875,0.8837890625,0.5400390625
1969/12/31/18:00:13.996,42,1730348555,105751959,RU_myo,-0.5467138657568774,-0.2967317275407388,-0.3828461799389251,-0.6829956320255878,4.4375,12.875,1.375,0.0126953125,0.849609375,0.54296875
1969/12/31/18:00:14.018,43,1730348555,126881758,RU_myo,-0.5455131842118649,-0.2956439767646311,-0.3842639301631127,-0.6836309214988923,6.0625,12.875,1.1875,-0.0029296875,0.7939453125,0.5478515625
1969/12/31/18:00:14.035,44,1730348555,143166017,RU_myo,-0.5439005943516229,-0.2959351416080587,-0.3868090178411788,-0.683354460834282,15.875,9.5625,2.0625,-0.0205078125,0.80322265625,0.5263671875
1969/12/31/18:00:14.059,45,1730348555,165646535,RU_myo,-0.5419574001123747,-0.2974662576742922,-0.3900506468601561,-0.6823902804793314,23.5,6.9375,2.5,-0.017578125,0.82275390625,0.50830078125
1969/12/31/18:00:14.083,46,1730348555,188168319,RU_myo,-0.5400023971142115,-0.2993571154888344,-0.3936500295418924,-0.6810450666136398,28.1875,6.9375,-0.3125,0.01318359375,0.8486328125,0.53662109375
1969/12/31/18:00:14.098,47,1730348555,203133896,RU_myo,-0.5381155739449233,-0.3013129849797081,-0.3968274313020178,-0.6798309377534876,27.0625,5.875,0.0625,0.0263671875,0.85205078125,0.5439453125
1969/12/31/18:00:14.121,48,1730348555,225664336,RU_myo,-0.5365895662072815,-0.3031438097533629,-0.3992685329990941,-0.6787931250406488,18.875,3.25,0.6875,0.015625,0.890625,0.48828125
1969/12/31/18:00:14.143,49,1730348555,246609241,RU_myo,-0.5356819533376016,-0.3040637451894646,-0.400495041335461,-0.6783758586473102,7.75,2.25,0.4375,0.00830078125,0.9169921875,0.48681640625
1969/12/31/18:00:14.159,50,1730348555,263191802,RU_myo,-0.5355388450221719,-0.3038687076199878,-0.400052094486648,-0.6788374442372214,-1.3125,1.4375,0.6875,0.01123046875,0.86669921875,0.51904296875
1969/12/31/18:00:14.184,51,1730348555,286338939,RU_myo,-0.535177107828027,-0.3035660775842863,-0.3992009878324922,-0.6797585388286652,-0.8125,3.125,1.875,0.03515625,0.82275390625,0.5517578125
1969/12/31/18:00:14.205,52,1730348555,306717642,RU_myo,-0.5340800335529068,-0.3036279473118171,-0.3999954907902812,-0.6801266019784702,7.3125,5.8125,2.6875,0.00537109375,0.82470703125,0.5224609375
1969/12/31/18:00:14.223,53,1730348555,323263570,RU_myo,-0.5326971338072949,-0.3040060063581732,-0.402330374204593,-0.6796649039961087,14.0625,7.3125,2.1875,-0.03515625,0.86279296875,0.494140625
1969/12/31/18:00:14.246,54,1730348555,345647156,RU_myo,-0.5309003126902572,-0.3050281368922756,-0.4060328520896978,-0.6784099179060695,24.4375,8.0,1.4375,-0.05322265625,0.876953125,0.49853515625
1969/12/31/18:00:14.267,55,1730348555,366744137,RU_myo,-0.5287143706459754,-0.3056448768550207,-0.4100084430335522,-0.6774477102816954,26.75,11.875,2.0625,-0.0556640625,0.86572265625,0.52294921875
1969/12/31/18:00:14.285,56,1730348555,383196232,RU_myo,-0.5262716611583895,-0.3061933113802204,-0.4140353646409039,-0.6766524303911707,27.6875,13.75,2.5625,-0.04296875,0.8408203125,0.51708984375
1969/12/31/18:00:14.308,57,1730348555,405662568,RU_myo,-0.5241225502983645,-0.3074062978403426,-0.418358183779144,-0.6751098802282847,27.3125,10.6875,-0.875,-0.0234375,0.86083984375,0.43994140625
1969/12/31/18:00:14.330,58,1730348555,426817146,RU_myo,-0.5226717038838139,-0.3083299215344497,-0.4219090949262967,-0.6736020079128507,20.6875,7.5625,-2.6875,-0.03173828125,0.9033203125,0.4267578125
1969/12/31/18:00:14.347,59,1730348555,443209053,RU_myo,-0.5218235045838465,-0.3087608315426525,-0.4239892264729803,-0.6727556129857005,9.6875,7.1875,-5.375,0.02587890625,1.03369140625,0.47216796875
1969/12/31/18:00:14.370,60,1730348555,465664264,RU_myo,-0.5225434830629686,-0.3062512494755871,-0.4239791610416308,-0.6733499472826131,-12.3125,10.6875,-11.5,0.0302734375,1.10302734375,0.52783203125
1969/12/31/18:00:14.392,61,1730348555,486766309,RU_myo,-0.5257158923366151,-0.3010629785113213,-0.421536994238333,-0.6747521367162314,-37.625,9.375,-19.875,0.01025390625,1.0927734375,0.51611328125
1969/12/31/18:00:14.409,62,1730348555,502671063,RU_myo,-0.530727028483641,-0.2939261004113632,-0.4178193694801065,-0.6762863618476571,-50.375,8.4375,-28.5625,-0.001953125,0.98583984375,0.50341796875
1969/12/31/18:00:14.440,63,1730348555,533240876,RU_myo,-0.5352467430657414,-0.2867872800075164,-0.4153197362100764,-0.6773282046229872,-37.125,12.875,-30.625,-0.00341796875,0.8603515625,0.5546875
1969/12/31/18:00:14.454,64,1730348555,546793413,RU_myo,-0.5377529468142743,-0.2816626772838356,-0.4169706199790174,-0.6764786814764971,-5.0,19.6875,-30.125,-0.01953125,0.83935546875,0.580078125
1969/12/31/18:00:14.479,65,1730348555,570716910,RU_myo,-0.5389146806501993,-0.2780628861882568,-0.4225872308971665,-0.6735518024525028,18.5625,25.125,-33.3125,-0.05322265625,0.89501953125,0.552734375
1969/12/31/18:00:14.496,66,1730348555,586570118,RU_myo,-0.5401849841151763,-0.2748834220375951,-0.4294138005010033,-0.6695095780977838,24.6875,24.75,-37.25,-0.07275390625,0.89501953125,0.5029296875
1969/12/31/18:00:14.519,67,1730348555,608335870,RU_myo,-0.5417684895832001,-0.2717081576686275,-0.4359414578227777,-0.665294390553843,24.4375,23.625,-40.75,-0.06005859375,0.8916015625,0.5029296875
1969/12/31/18:00:14.540,68,1730348555,629317050,RU_myo,-0.5432305941998864,-0.2681060555353445,-0.4416151645467226,-0.6618124439392842,21.0,24.875,-38.0,-0.06201171875,0.85546875,0.52197265625
1969/12/31/18:00:14.557,69,1730348555,645679139,RU_myo,-0.5447017373847141,-0.2632877641543593,-0.4461366610960515,-0.6595010615326857,8.6875,26.9375,-34.5625,-0.09375,0.86767578125,0.50927734375
1969/12/31/18:00:14.579,70,1730348555,666806197,RU_myo,-0.546960732165157,-0.256696813154056,-0.4490058141641441,-0.6582814614074295,-6.0625,27.3125,-34.5,-0.13525390625,0.849609375,0.5126953125
1969/12/31/18:00:14.603,71,1730348555,689349834,RU_myo,-0.5499381362510704,-0.2491840428712817,-0.4503377546772442,-0.6577775199771431,-18.75,24.9375,-34.625,-0.158203125,0.85302734375,0.5146484375
1969/12/31/18:00:14.619,72,1730348555,705742149,RU_myo,-0.5528247000721015,-0.2404647072514992,-0.4503525570580743,-0.6585925522718091,-31.1875,27.625,-31.75,-0.15625,0.82421875,0.49951171875
1969/12/31/18:00:14.649,73,1730348555,734333795,RU_myo,-0.555517032964448,-0.2308245900540037,-0.44974785936223,-0.6601876231132097,-39.0,30.5,-29.875,-0.1767578125,0.80712890625,0.49072265625
1969/12/31/18:00:14.658,74,1730348555,742540933,RU_myo,-0.5576442064889431,-0.2212999773151918,-0.4494965065985625,-0.6618248632117871,-38.5,31.6875,-26.625,-0.2099609375,0.8203125,0.48193359375
1969/12/31/18:00:14.682,75,1730348555,765835884,RU_myo,-0.5589799906695954,-0.2118985181356955,-0.4500402283216068,-0.6634034827577795,-29.5625,36.4375,-24.5625,-0.2041015625,0.7373046875,0.51904296875
1969/12/31/18:00:14.705,76,1730348555,788724539,RU_myo,-0.5591798526364314,-0.2040316794764888,-0.452311928387753,-0.6641557690885884,-15.125,39.25,-22.4375,-0.20068359375,0.75830078125,0.52685546875
1969/12/31/18:00:14.720,77,1730348555,802487412,RU_myo,-0.5583099290109492,-0.1973736675143648,-0.456083307772062,-0.6643204610061415,-5.9375,39.875,-17.6875,-0.23583984375,0.78466796875,0.48779296875
1969/12/31/18:00:14.744,78,1730348555,825762729,RU_myo,-0.5569614319235618,-0.1912685872943724,-0.4604116855611824,-0.6642524901442085,-0.8125,40.3125,-15.5,-0.25439453125,0.77880859375,0.48779296875
1969/12/31/18:00:14.767,79,1730348555,848143341,RU_myo,-0.5549627334403966,-0.1859640876270635,-0.4651238305893833,-0.6641487369733197,6.125,41.0625,-11.3125,-0.25244140625,0.74658203125,0.49609375
1969/12/31/18:00:14.789,80,1730348555,869347449,RU_myo,-0.552208772356781,-0.1813231943713524,-0.4703051281809631,-0.6640786529635427,10.8125,41.875,-7.0625,-0.263671875,0.74658203125,0.49365234375
1969/12/31/18:00:14.806,81,1730348555,885800802,RU_myo,-0.5491625309637185,-0.1770527341993495,-0.4758025218263113,-0.6638409479097984,12.0625,40.5625,-4.4375,-0.29736328125,0.75927734375,0.46044921875
1969/12/31/18:00:14.830,82,1730348555,908266301,RU_myo,-0.5459315397669581,-0.1731478790742157,-0.4811765522104748,-0.6636623324120627,12.1875,39.25,-2.1875,-0.31494140625,0.77099609375,0.44775390625
1969/12/31/18:00:14.852,83,1730348555,929299216,RU_myo,-0.5423957306694611,-0.169365157264291,-0.4858186132698222,-0.6641555464324379,10.375,38.625,2.625,-0.31591796875,0.73388671875,0.458984375
1969/12/31/18:00:14.868,84,1730348555,945863327,RU_myo,-0.538176836072632,-0.165883946523635,-0.4904501082648753,-0.6650615766254786,11.125,39.0,8.25,-0.32470703125,0.70849609375,0.443359375
1969/12/31/18:00:14.892,85,1730348555,968316830,RU_myo,-0.5334084808020664,-0.1629520187347273,-0.4951422202227877,-0.6661502938163105,10.5,38.1875,11.9375,-0.3359375,0.755859375,0.4140625
1969/12/31/18:00:14.914,86,1730348555,989291556,RU_myo,-0.5283539785595116,-0.1601479542266557,-0.4993027490580298,-0.6677510545708232,5.25,37.1875,14.6875,-0.34375,0.8076171875,0.39990234375
1969/12/31/18:00:14.931,87,1730348556,5792390,RU_myo,-0.5234631945752718,-0.1572769794124373,-0.5023464561675484,-0.669998711676266,2.125,35.625,16.75,-0.3251953125,0.76806640625,0.42578125
1969/12/31/18:00:14.955,88,1730348556,28235339,RU_myo,-0.5182212785640744,-0.1550208512015956,-0.5050384030288205,-0.672570779622671,0.6875,33.25,20.375,-0.31396484375,0.76318359375,0.39794921875
1969/12/31/18:00:14.975,89,1730348556,49074447,RU_myo,-0.5126715048604086,-0.153313192882065,-0.5077889190998333,-0.6751395460435523,0.625,30.875,23.75,-0.32666015625,0.78173828125,0.36474609375
1969/12/31/18:00:14.993,90,1730348556,65845812,RU_myo,-0.5068109162178889,-0.1525193255814673,-0.5101676840878292,-0.6779450454417522,3.125,29.0625,27.3125,-0.29833984375,0.78076171875,0.3896484375
1969/12/31/18:00:15.017,91,1730348556,88315028,RU_myo,-0.5005156071215655,-0.1526996767489521,-0.5128438783858694,-0.6805571924170927,6.375,26.75,30.0,-0.291015625,0.81494140625,0.37109375
1969/12/31/18:00:15.039,92,1730348556,109304593,RU_myo,-0.4944276456392292,-0.1530705511990108,-0.5148736722148547,-0.6833855509470992,3.0,23.6875,30.9375,-0.29150390625,0.837890625,0.3623046875
1969/12/31/18:00:15.055,93,1730348556,125681120,RU_myo,-0.4888075738099435,-0.1536792946501982,-0.5158448762444303,-0.6865521785226688,-1.9375,18.6875,32.25,-0.2822265625,0.80908203125,0.34716796875
1969/12/31/18:00:15.079,94,1730348556,148251091,RU_myo,-0.4828858322733129,-0.1547773597883116,-0.515965220682329,-0.6903949108538568,-3.375,16.6875,36.5625,-0.2509765625,0.787109375,0.37158203125
1969/12/31/18:00:15.101,95,1730348556,169292727,RU_myo,-0.4766599038625808,-0.156669138695934,-0.516025542529849,-0.6942389764963965,0.0,15.0,40.3125,-0.24169921875,0.7880859375,0.384765625
1969/12/31/18:00:15.118,96,1730348556,185749948,RU_myo,-0.4702481047677691,-0.1590482233646731,-0.5160827999891312,-0.6980178551887055,-2.0,12.0625,42.75,-0.2548828125,0.845703125,0.35498046875
1969/12/31/18:00:15.141,97,1730348556,208283848,RU_myo,-0.4637913327418266,-0.1619210956394349,-0.515791624292825,-0.7018818695263859,-2.125,9.1875,44.875,-0.2529296875,0.876953125,0.361328125
1969/12/31/18:00:15.163,98,1730348556,229401917,RU_myo,-0.4575769296418879,-0.164793612115926,-0.5148274511843837,-0.7059880412388579,-4.6875,7.4375,45.375,-0.2421875,0.88623046875,0.38818359375
1969/12/31/18:00:15.180,99,1730348556,245790470,RU_myo,-0.4521868070695626,-0.1675331064119246,-0.5130358078319265,-0.7101084492177568,-10.25,3.375,42.0,-0.22607421875,0.89453125,0.3759765625
1969/12/31/18:00:15.204,100,1730348556,268304178,RU_myo,-0.447178747939021,-0.1713768150965976,-0.5106516424192423,-0.7140700629024902,-6.6875,-3.125,43.5625,-0.2001953125,0.8681640625,0.40966796875
1969/12/31/18:00:15.226,101,1730348556,289380729,RU_myo,-0.4418139425873951,-0.1765058601965391,-0.5087665458500519,-0.7174975423480339,-0.5,-6.5,46.625,-0.17724609375,0.88330078125,0.40380859375
1969/12/31/18:00:15.242,102,1730348556,305805625,RU_myo,-0.437102960875133,-0.1815667842227759,-0.506678131972264,-0.7205912676700218,-4.6875,-10.125,43.9375,-0.18994140625,0.94091796875,0.36865234375
1969/12/31/18:00:15.266,103,1730348556,328293629,RU_myo,-0.4335599085576479,-0.1869360923299655,-0.5042941335039196,-0.723027060343814,-8.125,-17.0,39.1875,-0.1943359375,0.99072265625,0.33544921875
1969/12/31/18:00:15.288,104,1730348556,349417496,RU_myo,-0.4306822145463518,-0.1919364552569472,-0.5006825688165326,-0.725940901520314,-12.4375,-18.8125,36.6875,-0.1484375,0.93115234375,0.373046875
1969/12/31/18:00:15.303,105,1730348556,365153370,RU_myo,-0.4278992210291393,-0.1967689471684418,-0.4966829069655022,-0.7290338318632249,-11.9375,-18.0,35.375,-0.10595703125,0.87841796875,0.40283203125
1969/12/31/18:00:15.328,106,1730348556,388233484,RU_myo,-0.4250117252951531,-0.201764612841151,-0.4934261629826698,-0.731564553577398,-5.4375,-17.0,34.625,-0.09521484375,0.8818359375,0.42236328125
1969/12/31/18:00:15.350,107,1730348556,409423938,RU_myo,-0.4217868902253424,-0.2074451801296395,-0.491362502272353,-0.7332293009936716,2.9375,-17.1875,33.6875,-0.07763671875,0.91064453125,0.41796875
1969/12/31/18:00:15.366,108,1730348556,425179593,RU_myo,-0.41855607139925,-0.2133061343745084,-0.4899632751812743,-0.7343345947908685,7.4375,-16.75,32.875,-0.0751953125,0.9189453125,0.41796875
1969/12/31/18:00:15.392,109,1730348556,449721114,RU_myo,-0.4158663039782971,-0.2186746356258055,-0.4886154431538372,-0.7351813175407349,5.6875,-17.4375,29.8125,-0.0859375,0.9697265625,0.41650390625
1969/12/31/18:00:15.412,110,1730348556,469371924,RU_myo,-0.4138481091366347,-0.2236159079599808,-0.4863523937044451,-0.7363334960527206,-0.4375,-19.0,27.4375,-0.0703125,0.9453125,0.4189453125
1969/12/31/18:00:15.429,111,1730348556,485289188,RU_myo,-0.4119705145375064,-0.2278959853752664,-0.4831346063820593,-0.738190129382391,-6.625,-17.3125,26.1875,-0.0322265625,0.912109375,0.43212890625
1969/12/31/18:00:15.453,112,1730348556,508249255,RU_myo,-0.4101296868589222,-0.2317965105193729,-0.4804376331775946,-0.7397592164311005,-4.4375,-15.0625,24.5625,-0.029296875,0.9228515625,0.435546875
1969/12/31/18:00:15.475,113,1730348556,529418661,RU_myo,-0.4086689771904729,-0.2353386463629724,-0.4780621413281024,-0.7409871642875644,-4.625,-15.5,22.625,-0.05810546875,0.93994140625,0.42529296875
1969/12/31/18:00:15.491,114,1730348556,545184899,RU_myo,-0.4076782852435711,-0.2386870918544321,-0.4754822635228536,-0.7421209503835067,-6.6875,-16.1875,19.6875,-0.0380859375,0.92578125,0.42041015625
1969/12/31/18:00:15.514,115,1730348556,568200131,RU_myo,-0.4066522858884698,-0.2419285098697125,-0.4728713659108306,-0.7433015443247297,-5.25,-14.6875,17.9375,-0.00244140625,0.90625,0.43896484375
1969/12/31/18:00:15.544,116,1730348556,596845010,RU_myo,-0.4053069189294998,-0.2451615559915375,-0.4707321586663502,-0.7443341640211082,-1.75,-12.625,18.0,0.013671875,0.90673828125,0.4521484375
1969/12/31/18:00:15.554,117,1730348556,605245806,RU_myo,-0.4040809293262203,-0.2479656873361173,-0.4685898467552816,-0.745422816914432,-4.1875,-11.6875,17.125,0.01220703125,0.9248046875,0.44482421875
1969/12/31/18:00:15.577,118,1730348556,628191876,RU_myo,-0.4032947261087359,-0.2506554842809592,-0.4661569488526823,-0.7464736372633095,-11.3125,-13.0625,15.6875,0.00927734375,0.939453125,0.3779296875
1969/12/31/18:00:15.599,119,1730348556,649330689,RU_myo,-0.4030508314200779,-0.2527306924455698,-0.4617019290873546,-0.7486711915551326,-21.5,-12.6875,12.0,0.10302734375,0.97509765625,0.458984375
1969/12/31/18:00:15.615,120,1730348556,665103994,RU_myo,-0.4016501196989157,-0.2532818715621486,-0.4615222922296308,-0.7493481491662798,14.0,9.125,-4.75,0.23095703125,1.1396484375,0.77734375
1969/12/31/18:00:15.647,121,1730348556,695806938,RU_myo,-0.4003036586380979,-0.2507161807722681,-0.4618231109794919,-0.7507448246542526,9.9375,18.25,-1.125,0.04736328125,0.85888671875,0.68896484375
1969/12/31/18:00:15.665,122,1730348556,712241133,RU_myo,-0.3984706617132162,-0.2480905559602119,-0.4614545371747018,-0.7528159920711476,-11.9375,16.1875,10.625,-0.06494140625,0.80712890625,0.3837890625
1969/12/31/18:00:15.685,123,1730348556,732228223,RU_myo,-0.3970126585440039,-0.24858302202148,-0.4654904760515169,-0.7509367795119791,16.375,6.3125,1.6875,-0.06005859375,0.919921875,0.30908203125
1969/12/31/18:00:15.702,124,1730348556,748335625,RU_myo,-0.394934524342985,-0.2493134804421409,-0.4695149583944651,-0.7492831332651565,26.75,9.4375,0.0,0.02099609375,0.84130859375,0.412109375
1969/12/31/18:00:15.725,125,1730348556,770741001,RU_myo,-0.3922437996531562,-0.250896881962677,-0.4738417396152334,-0.7474420125022879,27.875,8.3125,4.5625,0.0185546875,0.83251953125,0.3427734375
1969/12/31/18:00:15.747,126,1730348556,792184311,RU_myo,-0.3902299933852899,-0.2522396876229908,-0.4775648574037994,-0.7456725147296641,18.3125,4.1875,5.6875,-0.03955078125,0.8916015625,0.27587890625
1969/12/31/18:00:15.764,127,1730348556,808242044,RU_myo,-0.3903673454338697,-0.2535922952279125,-0.4784990600690335,-0.7445420961456811,-4.5625,-7.125,2.3125,-0.04345703125,0.94873046875,0.20849609375
1969/12/31/18:00:15.787,128,1730348556,830732098,RU_myo,-0.3930512832400148,-0.2549950716423574,-0.4759338364449745,-0.7442950930298108,-27.6875,-19.0,-4.9375,0.01123046875,1.06494140625,0.22900390625
1969/12/31/18:00:15.809,129,1730348556,851923313,RU_myo,-0.3995071719296777,-0.2546202140682272,-0.4683498376700805,-0.7457955455210299,-64.375,-30.4375,-15.75,0.0283203125,1.0146484375,0.20703125
1969/12/31/18:00:15.827,130,1730348556,868269400,RU_myo,-0.4122660239081174,-0.2526693321953525,-0.4502884862167418,-0.7506232165871113,-122.9375,-60.25,-21.6875,-0.02490234375,1.072265625,-0.06640625
1969/12/31/18:00:15.849,131,1730348556,890722523,RU_myo,-0.4297860935469655,-0.2524886493899171,-0.4244763249956185,-0.7558791207865903,-163.875,-98.0,-25.6875,-0.03662109375,1.18212890625,-0.19921875
1969/12/31/18:00:15.871,132,1730348556,911868005,RU_myo,-0.4519334098968033,-0.2534000699380861,-0.3909025645359926,-0.7607494874225056,-198.5,-134.0,-32.1875,-0.0458984375,0.99755859375,-0.10986328125
1969/12/31/18:00:15.889,133,1730348556,928346283,RU_myo,-0.4780621119461462,-0.2539533317768306,-0.3497732622958462,-0.7646064264600179,-231.0,-161.5625,-43.3125,0.0439453125,0.61865234375,0.052734375
1969/12/31/18:00:15.912,134,1730348556,950735203,RU_myo,-0.5051783575653938,-0.2561596673555585,-0.3074282212222893,-0.7646338605266707,-220.5,-178.1875,-54.75,0.19287109375,0.3681640625,0.2294921875
1969/12/31/18:00:15.917,135,1730348556,956077247,RU_myo,-0.5293913657016907,-0.2642684590141019,-0.2718974560988046,-0.7589326299862258,-157.1875,-186.25,-59.8125,0.33544921875,0.30322265625,0.36474609375
1969/12/31/18:00:15.941,136,1730348556,978642655,RU_myo,-0.5495285272596441,-0.2790975072366006,-0.2463845695854268,-0.7479422591700287,-78.0,-185.625,-63.4375,0.4521484375,0.33642578125,0.44970703125
1969/12/31/18:00:15.956,137,1730348556,993641892,RU_myo,-0.565752654392011,-0.3006972306568973,-0.2281930069872415,-0.7330982615487417,-12.8125,-192.3125,-61.5625,0.50390625,0.32763671875,0.51220703125
1969/12/31/18:00:15.980,138,1730348557,16147815,RU_myo,-0.5772936455035403,-0.3295682086604417,-0.2139752110302793,-0.7157733242906777,39.0625,-208.5,-47.1875,0.494140625,0.32373046875,0.51123046875
1969/12/31/18:00:16.003,139,1730348557,38620006,RU_myo,-0.5831013513770896,-0.3630803788300508,-0.2001855173243514,-0.6986352490280034,66.25,-218.6875,-18.125,0.5517578125,0.38037109375,0.50927734375
1969/12/31/18:00:16.019,140,1730348557,53611216,RU_myo,-0.5840162694053258,-0.3991500054248961,-0.184439039203981,-0.6823390000994402,73.9375,-228.8125,12.125,0.587890625,0.58935546875,0.47412109375
1969/12/31/18:00:16.042,141,1730348557,76134836,RU_myo,-0.5838883339719357,-0.4350935437321971,-0.163747507060385,-0.6655484772618333,55.875,-245.625,27.375,0.56494140625,0.7626953125,0.45263671875
1969/12/31/18:00:16.060,142,1730348557,94044403,RU_myo,-0.5850992863558757,-0.4687141461576224,-0.1348773779958783,-0.6478996582824634,12.875,-267.0,38.0,0.59326171875,0.71142578125,0.26025390625
1969/12/31/18:00:16.081,143,1730348557,113540076,RU_myo,-0.5861899214793143,-0.5009925107156367,-0.0965489282436517,-0.6293378938359905,-24.125,-295.375,57.125,0.80615234375,0.59326171875,0.27685546875
1969/12/31/18:00:16.105,144,1730348557,136169300,RU_myo,-0.5859077094084584,-0.5342135604637746,-0.0547457515978528,-0.6069027356622614,-26.75,-319.375,56.375,1.11181640625,0.57568359375,0.24951171875
1969/12/31/18:00:16.128,145,1730348557,158608561,RU_myo,-0.5840997303969899,-0.5643245671108222,-0.0137937867366478,-0.5832452480327729,-27.125,-312.125,55.5,1.0302734375,0.5068359375,0.3671875
1969/12/31/18:00:16.143,146,1730348557,173532715,RU_myo,-0.5787008668757675,-0.593775652165613,0.0261214902998131,-0.5584384024375947,-13.0,-312.0625,60.4375,1.0205078125,0.466796875,0.4072265625
1969/12/31/18:00:16.167,147,1730348557,196189165,RU_myo,-0.5693015622703835,-0.6217886274025157,0.0664632720103395,-0.5337202146284845,-5.0,-309.6875,74.75,1.1435546875,0.45166015625,0.3828125
1969/12/31/18:00:16.185,148,1730348557,214068594,RU_myo,-0.5595328921149697,-0.6452815519558873,0.1049734483461767,-0.5094263798520563,-11.5625,-291.75,73.75,1.17236328125,0.52734375,0.47509765625
1969/12/31/18:00:16.205,149,1730348557,233609602,RU_myo,-0.5520983098135147,-0.6630550561368587,0.1403743215311832,-0.4856341201841849,-28.875,-263.125,61.75,1.18359375,0.59228515625,0.46826171875
1969/12/31/18:00:16.228,150,1730348557,256073573,RU_myo,-0.5463598548381031,-0.6745884132624613,0.1752233180563219,-0.4644547023366805,-53.0,-231.625,68.5625,1.220703125,0.5849609375,0.3330078125
1969/12/31/18:00:16.247,151,1730348557,274047968,RU_myo,-0.5404306146562786,-0.6821448876355987,0.2075668571932245,-0.4466868061738344,-52.75,-202.875,73.125,1.24755859375,0.51025390625,0.43115234375
1969/12/31/18:00:16.268,152,1730348557,293578246,RU_myo,-0.5361790809133623,-0.6858941959367519,0.2366878173912372,-0.4313235702691783,-59.1875,-173.3125,69.9375,1.21630859375,0.546875,0.50341796875
1969/12/31/18:00:16.294,153,1730348557,318997836,RU_myo,-0.5354122849172684,-0.6876810243300787,0.2609623766449606,-0.415123032258892,-70.625,-148.25,46.6875,1.0126953125,0.734375,0.20361328125
1969/12/31/18:00:16.309,154,1730348557,334031957,RU_myo,-0.5355082981627838,-0.6899841931536667,0.2804491258329145,-0.3981217949527967,-62.0625,-136.5,24.5,0.9697265625,0.8076171875,0.166015625
1969/12/31/18:00:16.330,155,1730348557,353604613,RU_myo,-0.5350880288355377,-0.6924955828867356,0.2933310216246828,-0.384821492164716,-37.5,-104.9375,7.9375,1.20654296875,0.79541015625,0.2587890625
1969/12/31/18:00:16.354,156,1730348557,376092929,RU_myo,-0.5367957584668607,-0.6920667544349896,0.2974806738791903,-0.3799989075855229,-7.4375,-58.1875,-2.8125,1.22705078125,0.72021484375,0.30419921875
1969/12/31/18:00:16.372,157,1730348557,393987969,RU_myo,-0.5386151943164535,-0.6907091392724425,0.2959484506788083,-0.3810893227548936,11.625,-15.5625,-9.75,1.12109375,0.6015625,0.33447265625
1969/12/31/18:00:16.392,158,1730348557,413583548,RU_myo,-0.5396645647277803,-0.6894425382453072,0.2902787457413847,-0.3862245380680156,26.25,20.5625,-7.5625,0.998046875,0.6015625,0.2236328125
1969/12/31/18:00:16.423,159,1730348557,443568538,RU_myo,-0.5417999782850182,-0.6883429261122492,0.2812452742973261,-0.3918391191382018,23.625,46.25,-22.625,1.00048828125,0.60205078125,0.04052734375
1969/12/31/18:00:16.439,160,1730348557,458594827,RU_myo,-0.5421568403703072,-0.6891855275764391,0.2691558781980248,-0.3983018732699115,40.1875,57.0,-40.0625,0.91650390625,0.40625,-0.02685546875
1969/12/31/18:00:16.456,161,1730348557,475027247,RU_myo,-0.5386130244636513,-0.6918659768067934,0.256215011523899,-0.4069045930990554,64.6875,60.25,-37.375,0.85302734375,0.2626953125,-0.0458984375
1969/12/31/18:00:16.479,162,1730348557,496165098,RU_myo,-0.5317157759264258,-0.695527201843153,0.2448626828531704,-0.4166083432591578,76.0,57.5625,-22.5,0.8125,0.2041015625,-0.125
1969/12/31/18:00:16.497,163,1730348557,514481486,RU_myo,-0.5212675509689552,-0.7008823972986162,0.2348480899342629,-0.4264860843192903,87.0,53.125,-9.8125,0.8017578125,0.20849609375,-0.26318359375
1969/12/31/18:00:16.497,1,1730348562,284627526,RU_myo,-0.5116816679004044,-0.7340776600078798,0.3167495057732704,-0.3146134301081327,-10.75,7.9375,-5.0,0.81005859375,0.55908203125,-0.30322265625
1969/12/31/18:00:16.519,2,1730348562,305167289,RU_myo,-0.5141468581725932,-0.7327080997580699,0.3164591001454054,-0.3140787906168286,-16.4375,7.125,-5.1875,0.80078125,0.55322265625,-0.30859375
1969/12/31/18:00:16.541,3,1730348562,326178580,RU_myo,-0.5170024858728149,-0.7308587850698807,0.3167563335709963,-0.3133995708838277,-20.3125,6.0625,-4.0,0.79052734375,0.5361328125,-0.2939453125
1969/12/31/18:00:16.565,4,1730348562,350093339,RU_myo,-0.5201289819219563,-0.7286810508291759,0.3170089101270407,-0.3130417212247963,-21.3125,7.0625,-3.875,0.80322265625,0.533203125,-0.26318359375
1969/12/31/18:00:16.580,5,1730348562,365124718,RU_myo,-0.5234066456394504,-0.7267637985394795,0.3163265676713236,-0.3127257057202127,-18.875,9.75,-7.25,0.81640625,0.56591796875,-0.2646484375
1969/12/31/18:00:16.602,6,1730348562,386161820,RU_myo,-0.5267558803504868,-0.725166651642276,0.3146132039400718,-0.3125381604999239,-15.75,12.1875,-11.5625,0.8408203125,0.5947265625,-0.25048828125
1969/12/31/18:00:16.627,7,1730348562,410079223,RU_myo,-0.5303801825849265,-0.7240391376300326,0.3110261692120581,-0.3126130374223237,-10.0625,18.3125,-17.3125,0.8525390625,0.65576171875,-0.2373046875
1969/12/31/18:00:16.646,8,1730348562,427211288,RU_myo,-0.5344685946538208,-0.7234276866999815,0.3058988919041852,-0.3121242883475664,-10.0,22.5625,-24.9375,0.81787109375,0.6884765625,-0.25732421875
1969/12/31/18:00:16.664,9,1730348562,446086060,RU_myo,-0.5390354540705881,-0.7226810248697728,0.2999727419335304,-0.3117519360725276,-8.625,24.6875,-27.125,0.82373046875,0.7265625,-0.21630859375
1969/12/31/18:00:16.683,10,1730348562,464039067,RU_myo,-0.5450119838133991,-0.7209660206929096,0.2927074439383048,-0.3122375486214277,-11.25,32.8125,-31.9375,0.86767578125,0.7646484375,-0.15234375
1969/12/31/18:00:16.707,11,1730348562,486597632,RU_myo,-0.5542488504763285,-0.7163548902148077,0.285272450955441,-0.3134701129882637,-30.0,42.9375,-35.0625,0.9443359375,0.76708984375,-0.0634765625
1969/12/31/18:00:16.727,12,1730348562,506056101,RU_myo,-0.5684095644726839,-0.7074449975091677,0.2770332882144864,-0.3157288389366685,-54.875,58.9375,-35.8125,0.93701171875,0.8076171875,0.0966796875
1969/12/31/18:00:16.745,13,1730348562,524031322,RU_myo,-0.5868254329141918,-0.6949746442635363,0.2665890266218605,-0.318710599134468,-79.0,83.6875,-42.5625,0.9111328125,0.84521484375,0.1328125
1969/12/31/18:00:16.769,14,1730348562,546638531,RU_myo,-0.6063609673763382,-0.681431323679599,0.2543237192810469,-0.3213987774739604,-94.625,103.875,-54.125,0.94873046875,0.90234375,0.13330078125
1969/12/31/18:00:16.789,15,1730348562,566166060,RU_myo,-0.6278227967320142,-0.6658449219739745,0.2404609525735526,-0.3235237333990869,-106.8125,113.5625,-64.1875,0.97802734375,0.857421875,0.2158203125
1969/12/31/18:00:16.808,16,1730348562,584055591,RU_myo,-0.6500537083634518,-0.648955129192431,0.2242932474167388,-0.3255456276791523,-111.625,126.8125,-73.625,0.95654296875,0.8251953125,0.16650390625
1969/12/31/18:00:16.830,17,1730348562,605818412,RU_myo,-0.6728846361034981,-0.6297956063448524,0.2064123210251275,-0.3285996263747151,-117.375,141.1875,-75.125,0.88427734375,0.763671875,0.29248046875
1969/12/31/18:00:16.852,18,1730348562,626199509,RU_myo,-0.6977251411789314,-0.6053827567664293,0.1859664542662879,-0.3348250633754039,-135.0,175.0,-70.25,0.85693359375,0.7109375,0.42724609375
1969/12/31/18:00:16.870,19,1730348562,643957062,RU_myo,-0.7240164614776545,-0.5747944899432311,0.1633202436916634,-0.3445837428561778,-157.25,210.1875,-61.1875,0.8505859375,0.62744140625,0.46923828125
1969/12/31/18:00:16.894,20,1730348562,666620272,RU_myo,-0.7498855458552169,-0.5385968863166183,0.1390281820996324,-0.3581287851451463,-172.9375,241.0625,-45.125,0.7890625,0.572265625,0.50146484375
1969/12/31/18:00:16.915,21,1730348562,686206975,RU_myo,-0.7732100169923929,-0.4991168615489612,0.1146784767486547,-0.3740019720679914,-176.875,255.0,-28.5625,0.822265625,0.48828125,0.56494140625
1969/12/31/18:00:16.937,22,1730348562,708722370,RU_myo,-0.7923639744307001,-0.4589522520002206,0.0905088018239796,-0.3915741554299755,-167.5,258.9375,-11.4375,0.81591796875,0.4541015625,0.59423828125
1969/12/31/18:00:16.956,23,1730348562,726653994,RU_myo,-0.8064789340535914,-0.4207556963346041,0.0659147304962826,-0.4101361008657586,-144.125,257.5,2.25,0.7763671875,0.38720703125,0.587890625
1969/12/31/18:00:16.976,24,1730348562,746084576,RU_myo,-0.8151559897624632,-0.3859113000350445,0.0400986437012532,-0.4300991509326204,-111.9375,257.5625,16.875,0.75,0.34619140625,0.6142578125
1969/12/31/18:00:16.994,25,1730348562,764078534,RU_myo,-0.8178844454609242,-0.3565465958049936,0.0136710779630808,-0.4513896991738673,-71.6875,248.9375,36.4375,0.68017578125,0.3232421875,0.60009765625
1969/12/31/18:00:17.018,26,1730348562,786587685,RU_myo,-0.8153266304697598,-0.3354929626238693,-0.0130608502822463,-0.4717164104274851,-22.125,226.875,44.4375,0.63330078125,0.3369140625,0.5615234375
1969/12/31/18:00:17.039,27,1730348562,806198052,RU_myo,-0.8081478716078386,-0.3209154526783487,-0.0401602068966058,-0.4922371863542948,18.1875,211.0,58.1875,0.5478515625,0.33056640625,0.5966796875
1969/12/31/18:00:17.057,28,1730348562,824100676,RU_myo,-0.7966600863920542,-0.3125485560724515,-0.0689059402081229,-0.5127358757204971,58.625,202.0,69.0625,0.50048828125,0.41748046875,0.587890625
1969/12/31/18:00:17.080,29,1730348562,845844372,RU_myo,-0.7822018848237894,-0.3085229812565742,-0.0996062325243776,-0.5320266721292893,89.0625,196.8125,71.125,0.4560546875,0.4833984375,0.5576171875
1969/12/31/18:00:17.101,30,1730348562,866894225,RU_myo,-0.765945614019167,-0.3060730879925197,-0.1303633331908319,-0.5501381485871532,100.25,190.625,72.125,0.38037109375,0.5185546875,0.5791015625
1969/12/31/18:00:17.118,31,1730348562,882705381,RU_myo,-0.7489251195947532,-0.3038178832485275,-0.1585004103648907,-0.5671714722837619,94.1875,176.0625,75.5,0.29833984375,0.626953125,0.59814453125
1969/12/31/18:00:17.142,32,1730348562,905868521,RU_myo,-0.7322612784053767,-0.3005823300672179,-0.1826686119576006,-0.5831602363029984,74.8125,159.625,76.5,0.22509765625,0.71142578125,0.45361328125
1969/12/31/18:00:17.164,33,1730348562,926863715,RU_myo,-0.719618739719007,-0.289959174998304,-0.2008536402692945,-0.5981056440714332,18.125,152.8125,60.75,0.2021484375,0.67041015625,0.4052734375
1969/12/31/18:00:17.180,34,1730348562,943098148,RU_myo,-0.7103584835612231,-0.2745246549581907,-0.2140413439169352,-0.6117297947189742,-21.9375,142.4375,46.9375,0.1650390625,0.6611328125,0.47021484375
1969/12/31/18:00:17.204,35,1730348562,965784935,RU_myo,-0.7013619253931642,-0.2601117756722647,-0.2241648409301333,-0.6246466504001946,-27.75,124.1875,49.625,0.10009765625,0.62890625,0.51171875
1969/12/31/18:00:17.226,36,1730348562,986650380,RU_myo,-0.6914887219443029,-0.2479716396522244,-0.2321644393888904,-0.6375367334007227,-23.625,108.5,58.4375,0.0830078125,0.529296875,0.50146484375
1969/12/31/18:00:17.244,37,1730348563,3341446,RU_myo,-0.6800042365505565,-0.2402779284957405,-0.2397286520526463,-0.649916093612177,-3.5,96.25,65.8125,0.08544921875,0.44091796875,0.51953125
1969/12/31/18:00:17.266,38,1730348563,25850880,RU_myo,-0.6664008989245165,-0.2389375876261088,-0.2501673490879745,-0.6604808616321199,35.5,82.375,72.6875,0.0517578125,0.50732421875,0.54736328125
1969/12/31/18:00:17.288,39,1730348563,46818245,RU_myo,-0.650789104056218,-0.2463880346126749,-0.2649419019701812,-0.667511997661339,85.0,61.0625,75.3125,0.0126953125,0.71142578125,0.55615234375
1969/12/31/18:00:17.305,40,1730348563,62680517,RU_myo,-0.6363773250261633,-0.2551734531441822,-0.2787927132175615,-0.672447047773882,84.6875,48.3125,66.0625,0.0146484375,0.7548828125,0.48876953125
1969/12/31/18:00:17.329,41,1730348563,85802377,RU_myo,-0.6242208380951556,-0.2621873993407106,-0.2898342549974476,-0.6764630200866938,59.5625,40.5625,53.75,0.04541015625,0.875,0.45458984375
1969/12/31/18:00:17.351,42,1730348563,106841081,RU_myo,-0.6149473578913061,-0.26652194441359,-0.2970373948845758,-0.6801283600973317,34.0625,32.1875,42.9375,0.05029296875,0.9326171875,0.5341796875
1969/12/31/18:00:17.367,43,1730348563,122700901,RU_myo,-0.6081312858437341,-0.2694600187675718,-0.3011970991207174,-0.6832627202951228,18.0625,22.3125,33.1875,0.06103515625,0.900390625,0.56396484375
1969/12/31/18:00:17.391,44,1730348563,145804359,RU_myo,-0.60366266611656,-0.2704916526365983,-0.3018008173032443,-0.6865434567935683,-2.875,13.5625,26.625,0.0654296875,0.83740234375,0.56640625
1969/12/31/18:00:17.413,45,1730348563,166710926,RU_myo,-0.600669524506106,-0.2706125453830597,-0.3001516685146341,-0.6898361751160857,-14.75,6.75,23.3125,0.06689453125,0.82958984375,0.60595703125
1969/12/31/18:00:17.429,46,1730348563,182671930,RU_myo,-0.5985389108933928,-0.2703708958150025,-0.2977131444211247,-0.6928330495015597,-18.0,2.9375,19.875,0.060546875,0.81591796875,0.64501953125
1969/12/31/18:00:17.453,47,1730348563,205868431,RU_myo,-0.5968262399742874,-0.2702471204219393,-0.2955751590342033,-0.6952699177612314,-13.0,1.625,16.5625,0.05908203125,0.80126953125,0.6923828125
1969/12/31/18:00:17.483,48,1730348563,234365172,RU_myo,-0.5953684748951255,-0.2703113249933891,-0.2936866326186923,-0.6972921399976226,-6.3125,1.125,13.0,0.078125,0.75732421875,0.74755859375
1969/12/31/18:00:17.492,49,1730348563,242647496,RU_myo,-0.5933462258306861,-0.2714671891066541,-0.2944149550922886,-0.6982590176639456,9.4375,5.9375,8.6875,0.103515625,0.796875,0.759765625
1969/12/31/18:00:17.516,50,1730348563,265794138,RU_myo,-0.5917058051426722,-0.2720198838082403,-0.2963106430085274,-0.6986339712705693,12.0,10.25,3.0625,0.083984375,0.8076171875,0.75244140625
1969/12/31/18:00:17.537,51,1730348563,286837791,RU_myo,-0.5909745277122841,-0.2712880074027783,-0.2977149381576496,-0.698940441119599,5.5,10.9375,-1.25,0.0634765625,0.75390625,0.7294921875
1969/12/31/18:00:17.555,52,1730348563,303877867,RU_myo,-0.5900997926799965,-0.2713397123027474,-0.2995966369082741,-0.6988553858701665,12.125,9.75,-2.5625,0.078125,0.7255859375,0.71533203125
1969/12/31/18:00:17.578,53,1730348563,325753020,RU_myo,-0.5881569656057284,-0.2731753219934876,-0.3032636673336997,-0.6981960865964028,32.5625,11.0,-1.0625,0.10009765625,0.67919921875,0.7578125
1969/12/31/18:00:17.600,54,1730348563,346802820,RU_myo,-0.58473775888998,-0.2761041249575482,-0.3095490985377287,-0.6971568124204407,52.9375,17.0,1.4375,0.09326171875,0.6396484375,0.75732421875
1969/12/31/18:00:17.625,55,1730348563,370745481,RU_myo,-0.5802085778867445,-0.2798818279361113,-0.318696664954726,-0.695310437347605,65.9375,21.6875,2.375,0.04931640625,0.69140625,0.69140625
1969/12/31/18:00:17.640,56,1730348563,385867797,RU_myo,-0.5751714371058915,-0.28428995692267,-0.3295151304047865,-0.6926592359629418,73.375,23.875,1.125,0.02392578125,0.76953125,0.66015625
1969/12/31/18:00:17.664,57,1730348563,408274997,RU_myo,-0.5699801269871516,-0.2883163207931581,-0.3406209539260406,-0.689908486504204,76.1875,26.0,1.1875,0.01123046875,0.80224609375,0.6953125
1969/12/31/18:00:17.686,58,1730348563,429388360,RU_myo,-0.5651611954117597,-0.29167444415473,-0.3508149623355069,-0.6873483134694641,69.25,24.625,0.875,-0.00390625,0.77880859375,0.64892578125
1969/12/31/18:00:17.702,59,1730348563,445890871,RU_myo,-0.5613073155959838,-0.2938669919098252,-0.3588045784917678,-0.6854455215242464,50.0625,21.0,0.875,-0.01708984375,0.81005859375,0.58154296875
1969/12/31/18:00:17.726,60,1730348563,468301854,RU_myo,-0.5585623671105415,-0.2957597498926665,-0.3649697285097288,-0.6836163760932229,38.4375,15.0625,-1.5,-0.0048828125,0.85498046875,0.57421875
1969/12/31/18:00:17.748,61,1730348563,489352226,RU_myo,-0.5568468777007554,-0.2964275849400009,-0.3688713863243495,-0.6826317763133437,24.0625,11.0625,-1.0625,-0.02001953125,0.79736328125,0.55712890625
1969/12/31/18:00:17.765,62,1730348563,505732007,RU_myo,-0.5558263027797422,-0.2962535273627834,-0.3709577542873913,-0.6824084650686612,7.5,8.8125,-0.0625,-0.017578125,0.849609375,0.521484375
1969/12/31/18:00:17.789,63,1730348563,528331922,RU_myo,-0.5564376470727267,-0.2952165075014565,-0.3725452887717367,-0.6814942159936456,-1.3125,3.5,-6.0,-0.08154296875,0.85205078125,0.46875
1969/12/31/18:00:17.810,64,1730348563,549294656,RU_myo,-0.5581296358000645,-0.2945362080230849,-0.3732663589451279,-0.6800087919173667,-2.6875,-3.4375,-10.5,-0.0732421875,0.79345703125,0.4638671875
1969/12/31/18:00:17.827,65,1730348563,565919338,RU_myo,-0.5594130011823324,-0.2963070173183748,-0.3744881273461479,-0.6775085889292027,14.0625,-7.875,-15.125,0.0419921875,0.77685546875,0.51025390625
1969/12/31/18:00:17.851,66,1730348563,588360167,RU_myo,-0.559352907441872,-0.2996642417391807,-0.378272702708644,-0.6739699025510739,38.1875,-3.125,-15.625,0.07421875,0.79931640625,0.58837890625
1969/12/31/18:00:17.873,67,1730348563,609307901,RU_myo,-0.5590706462838864,-0.3027282102148554,-0.3826826367030532,-0.6703354703205157,38.0,-2.375,-13.0625,0.0029296875,0.90673828125,0.60791015625
1969/12/31/18:00:17.898,68,1730348563,633377672,RU_myo,-0.5602317796719254,-0.3038886622711098,-0.3854912213103694,-0.6672245141489801,17.125,-3.0625,-17.3125,-0.02587890625,1.0283203125,0.587890625
1969/12/31/18:00:17.913,69,1730348563,648219565,RU_myo,-0.5637062660196722,-0.3012007820276183,-0.3870750475418754,-0.6645947954404733,-4.625,3.9375,-32.0625,-0.01953125,1.13720703125,0.65966796875
1969/12/31/18:00:17.935,70,1730348563,669363719,RU_myo,-0.5695388073017701,-0.294046075180018,-0.3868127904713479,-0.6629768606642872,-28.375,12.3125,-45.3125,-0.0234375,1.064453125,0.701171875
1969/12/31/18:00:17.952,71,1730348563,685821605,RU_myo,-0.5766398372496534,-0.2837424432021209,-0.3853013645805526,-0.662208111151433,-45.0,19.4375,-52.75,-0.02294921875,0.90283203125,0.6611328125
1969/12/31/18:00:17.975,72,1730348563,708377320,RU_myo,-0.582777139884191,-0.2738423946654482,-0.3855886448621132,-0.6608347335496932,-34.875,26.125,-55.1875,-0.0107421875,0.88232421875,0.6533203125
1969/12/31/18:00:17.998,73,1730348563,730828992,RU_myo,-0.5876238640609085,-0.2650654800183346,-0.3892062090897812,-0.6579946903241228,-10.1875,35.375,-59.25,-0.00439453125,0.84716796875,0.68798828125
1969/12/31/18:00:18.014,74,1730348563,745867388,RU_myo,-0.5909743956321418,-0.2568843572462754,-0.3952442617075029,-0.6546309374729271,6.5625,43.8125,-57.125,-0.01806640625,0.7490234375,0.662109375
1969/12/31/18:00:18.038,75,1730348563,768354855,RU_myo,-0.5920696774082508,-0.2502914902640177,-0.4040916744789226,-0.6507822874140994,28.25,51.0,-49.9375,-0.05322265625,0.701171875,0.64794921875
1969/12/31/18:00:18.060,76,1730348563,789321091,RU_myo,-0.591144108704413,-0.2452826938760103,-0.4156195932559419,-0.6462549005854873,45.125,57.1875,-42.875,-0.10498046875,0.7353515625,0.6005859375
1969/12/31/18:00:18.076,77,1730348563,805812233,RU_myo,-0.5896745215308731,-0.2394828009198039,-0.4276391401745837,-0.6419164373278538,40.0,60.625,-41.0,-0.1767578125,0.80126953125,0.546875
1969/12/31/18:00:18.100,78,1730348563,828224645,RU_myo,-0.5887181267592898,-0.2321670904201055,-0.4383954286245053,-0.638215369222672,22.25,60.0,-42.25,-0.21533203125,0.84814453125,0.46728515625
1969/12/31/18:00:18.122,79,1730348563,849368159,RU_myo,-0.5890689032020282,-0.2222130000578724,-0.4457076460924588,-0.6363677428188509,-6.0,57.125,-42.875,-0.228515625,0.830078125,0.447265625
1969/12/31/18:00:18.138,80,1730348563,865668961,RU_myo,-0.5899138306774505,-0.2106747924165693,-0.4496674016585408,-0.6367236701280613,-25.875,54.5625,-37.125,-0.2255859375,0.7392578125,0.46923828125
1969/12/31/18:00:18.169,81,1730348563,894331181,RU_myo,-0.5901015389407561,-0.1997520257475535,-0.4530886156889206,-0.6376441078553128,-23.125,52.4375,-28.625,-0.24169921875,0.638671875,0.46484375
1969/12/31/18:00:18.184,82,1730348563,909314442,RU_myo,-0.5890219567470741,-0.1907256879944676,-0.4575585545262475,-0.6382139261946073,-11.9375,50.75,-19.6875,-0.2783203125,0.6181640625,0.4375
1969/12/31/18:00:18.201,83,1730348563,925833383,RU_myo,-0.5863395465389344,-0.1845623804240384,-0.4639082849216654,-0.6379120371005457,9.5625,49.625,-11.125,-0.29638671875,0.6162109375,0.4443359375
1969/12/31/18:00:18.225,84,1730348563,948377770,RU_myo,-0.5823775916763074,-0.1811461634977238,-0.4718466947442394,-0.6366970274960427,26.4375,47.3125,-4.4375,-0.306640625,0.66162109375,0.42041015625
1969/12/31/18:00:18.246,85,1730348563,969398305,RU_myo,-0.5779809249467742,-0.1789482652527922,-0.4793518674268178,-0.6357179846088279,25.3125,41.5625,1.875,-0.33642578125,0.7255859375,0.3916015625
1969/12/31/18:00:18.262,86,1730348563,985111355,RU_myo,-0.573981475652916,-0.1769852503342324,-0.485061644709131,-0.6355601368898955,15.25,34.375,4.5625,-0.34716796875,0.7802734375,0.3828125
1969/12/31/18:00:18.287,87,1730348564,8236750,RU_myo,-0.5704657340733228,-0.174185215047102,-0.4882556833836078,-0.6370516028947623,1.125,30.625,8.1875,-0.32373046875,0.71875,0.38916015625
1969/12/31/18:00:18.309,88,1730348564,29395838,RU_myo,-0.5663832932392727,-0.1715628703982323,-0.4900924401628621,-0.6399887082873937,-6.375,28.75,17.75,-0.3232421875,0.68798828125,0.3876953125
1969/12/31/18:00:18.324,89,1730348564,44915069,RU_myo,-0.561475535314787,-0.1697242895337415,-0.4917793329963645,-0.6434997874303384,-5.9375,26.625,26.3125,-0.3564453125,0.7099609375,0.37548828125
1969/12/31/18:00:18.349,90,1730348564,68364159,RU_myo,-0.556564829750042,-0.169245999879029,-0.493150984140842,-0.6468334319213669,-2.25,20.0625,31.0,-0.36328125,0.70556640625,0.3671875
1969/12/31/18:00:18.371,91,1730348564,89338197,RU_myo,-0.5512443533067926,-0.1705854702715329,-0.4946673476031392,-0.6498726609843586,5.9375,15.875,35.0625,-0.330078125,0.70263671875,0.37548828125
1969/12/31/18:00:18.387,92,1730348564,105207866,RU_myo,-0.5451225646018126,-0.1733870584453369,-0.4967255433602948,-0.652718968698655,16.75,15.625,40.25,-0.3154296875,0.71533203125,0.419921875
