time,.header.seq,.header.stamp.secs,.header.stamp.nsecs,.header.frame_id,.orientation.x,.orientation.y,.orientation.z,.orientation.w,.angular_velocity.x,.angular_velocity.y,.angular_velocity.z,.linear_acceleration.x,.linear_acceleration.y,.linear_acceleration.z
1969/12/31/18:00:05.924000,1,1731186289,27561920,RL_myo,-0.454750745473384,-0.4138591873647855,-0.608368733173895,-0.501806553386413,171.5,9.3125,-270.75,-0.45361328125,0.67724609375,0.12158203125
1969/12/31/18:00:05.942000,2,1731186289,45522368,RL_myo,-0.4652930411382113,-0.3990144153937074,-0.6407544122389927,-0.4623025690742327,170.125,-2.0,-256.0,-0.5283203125,0.60791015625,0.06640625
1969/12/31/18:00:05.962000,3,1731186289,64973522,RL_myo,-0.4747632503208649,-0.3873052560144245,-0.6666459677663977,-0.4244733778096947,157.5,-19.25,-221.8125,-0.5693359375,0.50927734375,0.0615234375
1969/12/31/18:00:05.987000,4,1731186289,90584232,RL_myo,-0.4824612369038914,-0.3799878128986246,-0.6855160800638215,-0.3910346799295677,139.25,-32.25,-173.5625,-0.5595703125,0.41064453125,0.06689453125
1969/12/31/18:00:06.002000,5,1731186289,105412526,RL_myo,-0.4883775972239578,-0.3789473258139907,-0.6961913586020603,-0.3649710111721154,113.4375,-45.5625,-107.8125,-0.48876953125,0.3876953125,0.0693359375
1969/12/31/18:00:06.022000,6,1731186289,124859868,RL_myo,-0.4941319899525063,-0.3835992535636737,-0.6985961903404628,-0.3473450043008539,87.0625,-56.0,-37.6875,-0.369140625,0.40478515625,0.0615234375
1969/12/31/18:00:06.044000,7,1731186289,147475938,RL_myo,-0.497409855832345,-0.3936556527752914,-0.6944207778724444,-0.3397034671856236,50.25,-57.6875,24.4375,-0.2421875,0.39208984375,-0.01708984375
1969/12/31/18:00:06.062000,8,1731186289,165347200,RL_myo,-0.4988727813911575,-0.4072032294399074,-0.6846531516572064,-0.3414111009422725,12.5,-54.6875,78.0,-0.21923828125,0.466796875,-0.08935546875
1969/12/31/18:00:06.082000,9,1731186289,185050114,RL_myo,-0.5018039636401838,-0.422828735113013,-0.6703129327000897,-0.3465389084832113,-11.125,-71.1875,104.1875,-0.3203125,0.6689453125,-0.248046875
1969/12/31/18:00:06.104000,10,1731186289,207503835,RL_myo,-0.5044804247013596,-0.4426562449018825,-0.6582779894542541,-0.3409179352022495,46.8125,-98.875,83.8125,-0.2958984375,0.7392578125,-0.23779296875
1969/12/31/18:00:06.122000,11,1731186289,225513966,RL_myo,-0.5052245697976048,-0.4668353146148681,-0.6460868924713027,-0.3307335037126383,82.9375,-111.9375,87.0625,0.04833984375,0.533203125,-0.13720703125
1969/12/31/18:00:06.142000,12,1731186289,245069662,RL_myo,-0.4986898220151673,-0.4949668897984343,-0.6324712551148182,-0.3260312115047147,89.5625,-84.4375,130.9375,0.3388671875,0.6162109375,-0.2822265625
1969/12/31/18:00:06.164000,13,1731186289,267459987,RL_myo,-0.487325563386344,-0.5232112780101599,-0.618540336245535,-0.3258398475791723,86.25,-55.625,152.0,0.41357421875,0.88818359375,-0.38232421875
1969/12/31/18:00:06.190000,14,1731186289,292862638,RL_myo,-0.4793920111463612,-0.5437178137877698,-0.6060906508840882,-0.3274268796690296,51.8125,-43.75,119.8125,0.33349609375,1.0625,-0.4140625
1969/12/31/18:00:06.202000,15,1731186289,305013977,RL_myo,-0.4736560587318118,-0.55879330933494,-0.593702633596581,-0.3330422770905163,10.1875,-36.9375,87.1875,0.255859375,0.974609375,-0.4521484375
1969/12/31/18:00:06.232000,16,1731186289,334920601,RL_myo,-0.4681045134220775,-0.5722837056530405,-0.5819265365683846,-0.3387196935453103,-3.25,-31.875,86.625,0.20751953125,0.857421875,-0.55078125
1969/12/31/18:00:06.242000,17,1731186289,345543614,RL_myo,-0.4646983679249448,-0.5827344387900412,-0.5716876296759861,-0.3430003713866811,-9.4375,-31.0,68.8125,0.130859375,0.935546875,-0.5556640625
1969/12/31/18:00:06.262000,18,1731186289,364995879,RL_myo,-0.4658659662980663,-0.5875050165839364,-0.5652279200689627,-0.3439827834476486,-8.1875,-32.625,21.875,0.09619140625,1.087890625,-0.40234375
1969/12/31/18:00:06.284000,19,1731186289,387509820,RL_myo,-0.466042270956976,-0.5903649668631258,-0.5619849700067882,-0.3441608651029842,-4.0,-20.0,5.8125,0.08056640625,1.08984375,-0.4423828125
1969/12/31/18:00:06.302000,20,1731186289,405339435,RL_myo,-0.4619032100240784,-0.5950177582617258,-0.5594350981871964,-0.3458781040177659,5.4375,-1.5,26.8125,0.02978515625,1.015625,-0.5224609375
1969/12/31/18:00:06.322000,21,1731186289,425079831,RL_myo,-0.4557899257412957,-0.6005587666435926,-0.556554409860053,-0.3490442669140962,10.875,8.0625,40.0625,0.0283203125,0.97119140625,-0.48486328125
1969/12/31/18:00:06.344000,22,1731186289,447505299,RL_myo,-0.4494436523997715,-0.6049545739525442,-0.5550299531400763,-0.3520967450698373,16.0625,14.6875,32.375,0.0439453125,0.91943359375,-0.408203125
1969/12/31/18:00:06.362000,23,1731186289,465496263,RL_myo,-0.4426183938612521,-0.6085087405952404,-0.5552260795581647,-0.3543022306073591,22.8125,20.4375,24.9375,0.01708984375,0.93701171875,-0.41015625
1969/12/31/18:00:06.382000,24,1731186289,484967249,RL_myo,-0.4358732335212689,-0.611272235641141,-0.5559794395657742,-0.3567178731352305,23.375,24.25,20.875,0.0283203125,0.9052734375,-0.3720703125
1969/12/31/18:00:06.404000,25,1731186289,507399778,RL_myo,-0.4305094632923184,-0.6126856396358924,-0.5556831107565295,-0.3612397949003732,12.25,28.0625,24.125,0.0234375,0.88720703125,-0.27392578125
1969/12/31/18:00:06.422000,26,1731186289,525496576,RL_myo,-0.4253305574204291,-0.6141629214122224,-0.5571592278219396,-0.3625898753960064,17.6875,22.4375,15.5,-0.0595703125,0.89599609375,-0.40771484375
1969/12/31/18:00:06.443000,27,1731186289,546399941,RL_myo,-0.4167076029576592,-0.6193246565340255,-0.5632387914024952,-0.3543357268266212,67.4375,4.0625,-2.3125,-0.10302734375,0.91162109375,-0.62548828125
1969/12/31/18:00:06.467000,28,1731186289,570469107,RL_myo,-0.4130750366115983,-0.6222980309237376,-0.5662692360641857,-0.3485015453682367,54.875,-9.4375,-12.0625,0.017578125,1.2578125,-0.42138671875
1969/12/31/18:00:06.482000,29,1731186289,585446289,RL_myo,-0.4079490257153795,-0.6252899114982142,-0.5670637938242956,-0.347891898051715,31.1875,7.0625,8.4375,0.07861328125,1.111328125,-0.48681640625
1969/12/31/18:00:06.503000,30,1731186289,606502684,RL_myo,-0.4058726692585039,-0.6271190491174629,-0.5635831921703798,-0.3526514711241557,-12.1875,12.5,34.8125,-0.037109375,1.11083984375,-0.53759765625
1969/12/31/18:00:06.524000,31,1731186289,627359903,RL_myo,-0.4053695632830358,-0.6270960949613359,-0.5620978135857814,-0.3556290944369542,-6.0625,8.8125,12.6875,-0.0029296875,1.0380859375,-0.40625
1969/12/31/18:00:06.547000,32,1731186289,649981640,RL_myo,-0.4039081592632806,-0.6267961311021293,-0.5630179463892058,-0.3563644215681921,-3.5625,13.1875,7.3125,-0.11376953125,0.81103515625,-0.49365234375
1969/12/31/18:00:06.563000,33,1731186289,666572356,RL_myo,-0.4026822691394537,-0.6286188802874163,-0.5625223514183608,-0.3553222447605182,9.0,1.1875,20.875,-0.21142578125,0.80908203125,-0.4091796875
1969/12/31/18:00:06.592000,34,1731186289,694879861,RL_myo,-0.4013991193900078,-0.6312408532538925,-0.5618489118297723,-0.3531848417074616,22.5625,-6.75,16.0,-0.12451171875,0.87939453125,-0.314453125
1969/12/31/18:00:06.602000,35,1731186289,705453016,RL_myo,-0.3997498818292511,-0.6327033625837932,-0.5632506350232303,-0.3501931025856859,26.9375,-2.625,1.5625,-0.0966796875,0.97314453125,-0.38671875
1969/12/31/18:00:06.623000,36,1731186289,726605309,RL_myo,-0.3966568421846604,-0.6343824000103647,-0.5662079589086159,-0.3458769540945485,38.6875,1.9375,-0.3125,-0.1455078125,0.91064453125,-0.39404296875
1969/12/31/18:00:06.652000,37,1731186289,754857165,RL_myo,-0.3937755801973275,-0.6369252874983432,-0.5674103485887406,-0.3425090756459086,32.0625,-2.125,7.6875,-0.10546875,0.93896484375,-0.44384765625
1969/12/31/18:00:06.662000,38,1731186289,765542034,RL_myo,-0.392190851033961,-0.6394920225854098,-0.5681457566565739,-0.3382997023469103,22.125,-11.9375,2.6875,-0.06787109375,1.01416015625,-0.60107421875
1969/12/31/18:00:06.683000,39,1731186289,786536582,RL_myo,-0.3917576668762637,-0.6418624992269304,-0.568015049948183,-0.3345106359477803,14.75,-16.0625,2.6875,-0.0556640625,0.95703125,-0.5771484375
1969/12/31/18:00:06.704000,40,1731186289,807376175,RL_myo,-0.3913297265219184,-0.646316563298053,-0.5647183342962119,-0.332007753006743,10.125,-23.0,23.25,-0.0361328125,0.99658203125,-0.5869140625
1969/12/31/18:00:06.722000,41,1731186289,825352689,RL_myo,-0.3918810461297844,-0.649493551302471,-0.5602049715660009,-0.3328028881086614,-8.625,-17.5625,23.125,0.064453125,1.005859375,-0.5771484375
1969/12/31/18:00:06.751000,42,1731186289,854673737,RL_myo,-0.392135804267033,-0.6518914436383159,-0.5563140631741643,-0.3343377331945225,-2.4375,-10.0,22.5,0.044921875,1.04248046875,-0.4658203125
1969/12/31/18:00:06.765000,43,1731186289,868063084,RL_myo,-0.3919534833028407,-0.6537237246429035,-0.5522869932119908,-0.337634174654518,-8.375,0.75,29.5,-0.0068359375,0.96044921875,-0.4248046875
1969/12/31/18:00:06.781000,44,1731186289,884679662,RL_myo,-0.3902359630693104,-0.6557233636560325,-0.5494063402486601,-0.3404341886144219,5.0625,7.5,30.5625,-0.0439453125,0.916015625,-0.33935546875
1969/12/31/18:00:06.802000,45,1731186289,905572485,RL_myo,-0.3877303860094125,-0.6575487452959878,-0.5479369440567458,-0.3421401769193714,12.75,9.0,23.25,-0.02734375,0.93359375,-0.36669921875
1969/12/31/18:00:06.825000,46,1731186289,928267589,RL_myo,-0.3830282558117777,-0.660046301243527,-0.549947038419364,-0.3393913528631765,30.4375,8.375,11.0,-0.09765625,0.83203125,-0.5419921875
1969/12/31/18:00:06.841000,47,1731186289,944494914,RL_myo,-0.3782760942240519,-0.6634174159753863,-0.5516068634393322,-0.3354316576081622,36.3125,0.4375,10.875,-0.07080078125,0.857421875,-0.5546875
1969/12/31/18:00:06.864000,48,1731186289,967425569,RL_myo,-0.374304728775124,-0.6670106604897001,-0.5519057006870124,-0.3322541893774295,32.625,-4.75,13.25,-0.00341796875,0.99609375,-0.5908203125
1969/12/31/18:00:06.885000,49,1731186289,988172915,RL_myo,-0.3732680913231423,-0.6685380432232997,-0.5519680539448167,-0.3302409486837023,19.125,-7.0625,2.5625,0.03466796875,1.1357421875,-0.5693359375
1969/12/31/18:00:06.901000,50,1731186290,4583349,RL_myo,-0.3752123551712641,-0.6668746592316857,-0.553175794936945,-0.329378835533395,1.5,-4.75,-16.9375,0.05908203125,1.22607421875,-0.59326171875
1969/12/31/18:00:06.922000,51,1731186290,24950580,RL_myo,-0.3787705035253296,-0.6623296010726519,-0.5569867249713436,-0.3280521199562757,-4.75,-0.75,-40.25,0.04345703125,1.16455078125,-0.55029296875
1969/12/31/18:00:06.938000,52,1731186290,41489965,RL_myo,-0.3841889740665199,-0.6550437265537662,-0.5627651358010135,-0.3265148548460495,-10.5625,4.4375,-56.1875,-0.0478515625,1.2177734375,-0.52587890625
1969/12/31/18:00:06.961000,53,1731186290,64614788,RL_myo,-0.3911458203190224,-0.6460710959427636,-0.5708202305264186,-0.3221200873215479,-4.75,1.125,-72.5625,-0.1953125,1.21044921875,-0.48388671875
1969/12/31/18:00:06.984000,54,1731186290,87295211,RL_myo,-0.3998138192669091,-0.6361256965683092,-0.578329377403943,-0.3178492399239906,-12.375,-4.3125,-79.0,-0.18994140625,1.203125,-0.4267578125
1969/12/31/18:00:06.998000,55,1731186290,101514645,RL_myo,-0.4092262905948605,-0.6251000250965789,-0.5859778696497026,-0.3137096396208177,-16.6875,-5.0,-86.0625,-0.19384765625,1.126953125,-0.3564453125
1969/12/31/18:00:07.021000,56,1731186290,124627122,RL_myo,-0.4197741086523166,-0.6125723653014397,-0.5937136564364257,-0.3099175521570898,-25.8125,-4.125,-93.375,-0.208984375,1.03125,-0.2939453125
1969/12/31/18:00:07.044000,57,1731186290,147231852,RL_myo,-0.43033114982855,-0.5993266049236081,-0.6015237289335114,-0.3062546744915138,-32.3125,-2.5,-95.0625,-0.2353515625,0.89599609375,-0.28369140625
1969/12/31/18:00:07.065000,58,1731186290,168270652,RL_myo,-0.4390596073428847,-0.5871827192446335,-0.6085436954150547,-0.3035089557014409,-29.9375,2.3125,-84.5,-0.20751953125,0.7529296875,-0.234375
1969/12/31/18:00:07.083000,59,1731186290,186154373,RL_myo,-0.445787320753272,-0.5756051782617893,-0.6153988985699947,-0.3020538677995541,-25.625,11.9375,-76.75,-0.19677734375,0.71728515625,-0.1943359375
1969/12/31/18:00:07.102000,60,1731186290,204978634,RL_myo,-0.4509657182993034,-0.5644242743039597,-0.6229539973854364,-0.2999724597971412,-20.6875,17.5625,-72.1875,-0.271484375,0.6650390625,-0.23974609375
1969/12/31/18:00:07.118000,61,1731186290,221522884,RL_myo,-0.4548740721352142,-0.5544788602372764,-0.6293045160051247,-0.2993636554170436,-23.4375,19.9375,-60.75,-0.2412109375,0.65869140625,-0.27294921875
1969/12/31/18:00:07.152000,62,1731186290,255120476,RL_myo,-0.456520903902758,-0.5464823761424191,-0.6347349466027652,-0.3000953588890189,-16.3125,26.75,-42.8125,-0.2421875,0.61083984375,-0.23046875
1969/12/31/18:00:07.162000,63,1731186290,264966921,RL_myo,-0.4584027828053154,-0.537376714498842,-0.6405798972606298,-0.3012483205867444,-14.0,39.1875,-33.0,-0.455078125,0.505859375,-0.07080078125
1969/12/31/18:00:07.178000,64,1731186290,281537001,RL_myo,-0.459522494301142,-0.5302605167337392,-0.6486048010277907,-0.2949146888648052,-2.75,23.75,-27.0625,-0.88916015625,0.6005859375,-0.5712890625
1969/12/31/18:00:07.201000,65,1731186290,303980939,RL_myo,-0.4603561732560847,-0.5270019297449676,-0.6478431365654698,-0.30106549153815,-2.5625,20.3125,-15.0,0.06103515625,0.82958984375,0.1650390625
1969/12/31/18:00:07.222000,66,1731186290,325218701,RL_myo,-0.4552442792450011,-0.5277513450370727,-0.6497560794801289,-0.3033944646905618,9.1875,22.25,-2.8125,0.052734375,0.60595703125,-0.32861328125
1969/12/31/18:00:07.238000,67,1731186290,341549321,RL_myo,-0.4468074504707064,-0.528833022582799,-0.6588289069568742,-0.2943521832564154,13.6875,23.625,5.8125,-0.78125,0.48583984375,-1.294921875
1969/12/31/18:00:07.261000,68,1731186290,364160418,RL_myo,-0.4444392809763561,-0.530739355585058,-0.6534758831933322,-0.3062004768825018,9.8125,20.8125,10.9375,0.48974609375,0.95166015625,0.39599609375
1969/12/31/18:00:07.282000,69,1731186290,385194926,RL_myo,-0.4348481268114003,-0.5347563911749459,-0.6599316203805854,-0.2990534486141559,16.25,16.5625,16.375,-0.517578125,0.517578125,-1.2763671875
1969/12/31/18:00:07.300000,70,1731186290,402926129,RL_myo,-0.4305815666075533,-0.5377539593733739,-0.6585365136350817,-0.302902383426405,5.375,17.5625,27.6875,-0.14306640625,0.78076171875,-0.373046875
1969/12/31/18:00:07.321000,71,1731186290,424096702,RL_myo,-0.4249041365242549,-0.5426346851245548,-0.6533465644200157,-0.3132767786238151,10.5,19.8125,30.8125,0.44091796875,0.82373046875,0.064453125
1969/12/31/18:00:07.342000,72,1731186290,445274075,RL_myo,-0.4175180471630699,-0.5470273727119713,-0.6584102752222187,-0.3048534783773621,0.75,10.125,36.25,-0.8671875,0.65771484375,-1.56103515625
1969/12/31/18:00:07.358000,73,1731186290,461566282,RL_myo,-0.4174558943040423,-0.5508098605400558,-0.6496199618380448,-0.3167538145377163,-9.875,-0.5,32.6875,0.36669921875,1.14111328125,0.08251953125
1969/12/31/18:00:07.381000,74,1731186290,484185137,RL_myo,-0.4121991652337446,-0.5556205508273632,-0.6491801185358811,-0.3161373520744443,-7.4375,-2.6875,22.25,-0.09619140625,0.82470703125,-1.037109375
1969/12/31/18:00:07.402000,75,1731186290,505019973,RL_myo,-0.4104902214157001,-0.5573903051129333,-0.6495461532154767,-0.3144894604453022,-16.5625,2.375,24.5,-0.51611328125,0.8974609375,-1.02099609375
1969/12/31/18:00:07.417000,76,1731186290,520696528,RL_myo,-0.4114716920700796,-0.5585566487430094,-0.639911108180775,-0.3304834192464375,-16.375,8.8125,21.6875,0.60009765625,1.12109375,0.42626953125
1969/12/31/18:00:07.440000,77,1731186290,543343378,RL_myo,-0.4048301378958866,-0.5616232366829411,-0.645848412364582,-0.3218256169342696,12.4375,10.8125,16.3125,-0.63671875,0.65185546875,-1.3056640625
1969/12/31/18:00:07.464000,78,1731186290,567070572,RL_myo,-0.4020755890994461,-0.5636870280695938,-0.6457744092685549,-0.3218191532060381,26.6875,9.4375,14.875,-0.2041015625,0.9609375,-0.30029296875
1969/12/31/18:00:07.493000,79,1731186290,595776853,RL_myo,-0.397798164003571,-0.5672804440646199,-0.6408834796258821,-0.3304812915126323,26.1875,10.875,15.0,0.513671875,1.09326171875,0.1533203125
1969/12/31/18:00:07.515000,80,1731186290,618210899,RL_myo,-0.3914009976136894,-0.5694326068510405,-0.6481644463834993,-0.3200540825645076,15.625,13.25,10.8125,-0.75537109375,0.8076171875,-1.474609375
1969/12/31/18:00:07.538000,81,1731186290,640726520,RL_myo,-0.3923123514522756,-0.568816290531302,-0.645044997277396,-0.3262759537747146,-1.9375,11.0,11.0,-0.0322265625,1.14990234375,-0.11865234375
1969/12/31/18:00:07.561000,82,1731186290,663989505,RL_myo,-0.3904863940175572,-0.5704714480903574,-0.6410251010263213,-0.3334209394369982,2.875,4.5625,7.25,0.38525390625,0.93798828125,-0.068359375
1969/12/31/18:00:07.562000,83,1731186290,665655149,RL_myo,-0.3862075683596868,-0.5714382842211991,-0.6471173905369405,-0.3248708733215254,-2.0,10.5625,8.375,-0.68310546875,0.67236328125,-1.37841796875
1969/12/31/18:00:07.584000,84,1731186290,687051635,RL_myo,-0.3856571611708071,-0.5702159925334469,-0.6446132198585321,-0.3325598783383016,0.6875,20.6875,7.25,0.10205078125,0.9853515625,0.025390625
1969/12/31/18:00:07.607000,85,1731186290,709803786,RL_myo,-0.3820698922621574,-0.5711517654615446,-0.6429271957012086,-0.3383088518864438,22.9375,18.125,5.25,0.27490234375,0.85546875,0.080078125
1969/12/31/18:00:07.628000,86,1731186290,730790455,RL_myo,-0.3743206531303809,-0.574206539157121,-0.6520857423846387,-0.323967720009141,38.5,12.5,8.5,-0.78662109375,0.51416015625,-1.36962890625
1969/12/31/18:00:07.650000,87,1731186290,753253019,RL_myo,-0.3702180571327574,-0.5761999138460868,-0.6504754455853822,-0.3283503375163591,28.125,19.375,17.8125,0.0712890625,0.99365234375,-0.10107421875
1969/12/31/18:00:07.673000,88,1731186290,775856975,RL_myo,-0.36453018705254,-0.5777068057323529,-0.6499048990327303,-0.333160939413999,30.0,18.9375,0.0,0.2763671875,1.78759765625,-0.62744140625
1969/12/31/18:00:07.695000,89,1731186290,798264770,RL_myo,-0.3612446065751813,-0.5749764214469983,-0.6568805035594993,-0.3277383911655218,21.625,19.4375,-26.75,-0.27734375,0.69921875,-0.71923828125
1969/12/31/18:00:07.717000,90,1731186290,820439674,RL_myo,-0.3619816811163526,-0.578523748997118,-0.6538984541359977,-0.3266440663184487,-0.3125,-19.0,20.625,-0.1220703125,0.8984375,-0.62060546875
1969/12/31/18:00:07.741000,91,1731186290,843896719,RL_myo,-0.3621596601063839,-0.5792479497926677,-0.652180338371557,-0.3285924519738408,-5.8125,-5.375,1.25,0.078125,0.978515625,-0.53662109375
1969/12/31/18:00:07.742000,92,1731186290,845497452,RL_myo,-0.3627040206862685,-0.5775312380538716,-0.6524156118351355,-0.3305409685406075,-8.625,7.125,-6.1875,-0.06494140625,0.94189453125,-0.5166015625
1969/12/31/18:00:07.764000,93,1731186290,867066940,RL_myo,-0.3630849995549969,-0.5756627526983915,-0.6537849243962224,-0.3306765048897249,-2.5,8.0,-7.8125,-0.16357421875,0.82470703125,-0.4912109375
1969/12/31/18:00:07.787000,94,1731186290,889774867,RL_myo,-0.3630161304473277,-0.574368662346974,-0.6546862863665912,-0.3312186516371297,-2.1875,9.3125,-1.625,-0.1728515625,0.7900390625,-0.470703125
1969/12/31/18:00:07.817000,95,1731186290,919815090,RL_myo,-0.3620925589153264,-0.5763087870954706,-0.6526576479083938,-0.3328590622491472,-1.375,-4.25,10.1875,0.06787109375,0.81689453125,-0.46923828125
1969/12/31/18:00:07.833000,96,1731186290,936154542,RL_myo,-0.3586907957494883,-0.5768836823930855,-0.6580575395220322,-0.3248174944663564,21.875,8.125,-1.5,-0.50439453125,0.7880859375,-1.017578125
1969/12/31/18:00:07.846000,97,1731186290,948849278,RL_myo,-0.3558100007436487,-0.5766807370543289,-0.6611474679341247,-0.3220599269166783,15.0625,8.5,-9.5625,-0.1474609375,0.986328125,-0.80712890625
1969/12/31/18:00:07.868000,98,1731186290,971507306,RL_myo,-0.3540405754947666,-0.5772307814220828,-0.6554724669563512,-0.3343886076772671,-13.3125,4.5,-4.625,0.8134765625,1.04248046875,-0.01904296875
1969/12/31/18:00:07.882000,99,1731186290,985741467,RL_myo,-0.3603259593496596,-0.5728352734512034,-0.6587056367311782,-0.3288340563983682,-47.6875,-0.75,-0.625,-0.931640625,0.880859375,-1.29541015625
1969/12/31/18:00:07.897000,100,1731186291,674284,RL_myo,-0.3689328295867386,-0.5688095900328212,-0.6469293620544961,-0.3490367001499682,-95.625,-13.875,-10.3125,0.87451171875,1.1318359375,0.01123046875
1969/12/31/18:00:07.928000,101,1731186291,31589953,RL_myo,-0.383159899933751,-0.559848002881857,-0.6420583222846545,-0.3570991676509043,-122.0625,-15.125,-18.625,-0.736328125,0.65478515625,-1.42578125
1969/12/31/18:00:07.942000,102,1731186291,45754379,RL_myo,-0.3979910224086809,-0.5496560570177245,-0.6341856638320202,-0.3705265292199206,-128.3125,-15.875,-31.75,1.0751953125,0.9892578125,-0.00048828125
1969/12/31/18:00:07.957000,103,1731186291,60696669,RL_myo,-0.4124574991427394,-0.5361703358936025,-0.6318692643718232,-0.3783403428804145,-127.0,-3.375,-46.75,-0.58251953125,0.6865234375,-1.3681640625
1969/12/31/18:00:07.980000,104,1731186291,83230167,RL_myo,-0.4247724045913926,-0.5197358904454453,-0.6280040292019297,-0.393768901497653,-135.125,21.3125,-60.9375,1.3095703125,0.94921875,0.04833984375
1969/12/31/18:00:08.003000,105,1731186291,105773986,RL_myo,-0.4316702680268698,-0.4997805492537872,-0.6333157601180303,-0.4034740763361567,-108.6875,61.25,-74.3125,-0.40576171875,0.60107421875,-1.2109375
1969/12/31/18:00:08.018000,106,1731186291,120805476,RL_myo,-0.4341761063339277,-0.478606835236247,-0.6411329768116264,-0.4139747721764171,-79.75,89.5625,-79.0,1.361328125,0.81201171875,0.30859375
1969/12/31/18:00:08.040000,107,1731186291,143201255,RL_myo,-0.43124980432071,-0.4593854057630885,-0.6542595389637716,-0.4182500578842096,-36.3125,101.0625,-81.25,-0.56591796875,0.462890625,-0.88330078125
1969/12/31/18:00:08.063000,108,1731186291,165785286,RL_myo,-0.4213032124246333,-0.4479131212493675,-0.660426200441396,-0.4309462527785507,2.3125,95.375,-88.8125,1.13720703125,0.78173828125,0.3701171875
1969/12/31/18:00:08.077000,109,1731186291,180774716,RL_myo,-0.4170199141822294,-0.4313620303585537,-0.6783515799993386,-0.4240994268479895,32.0625,84.25,-104.0,-0.7646484375,0.57666015625,-0.76123046875
1969/12/31/18:00:08.100000,110,1731186291,203242171,RL_myo,-0.4162207867926397,-0.4124369614581611,-0.6929282717366028,-0.4201266710088756,11.3125,74.75,-117.625,-0.17431640625,0.779296875,-0.0224609375
1969/12/31/18:00:08.130000,111,1731186291,233204962,RL_myo,-0.4196533205536109,-0.3918229083702998,-0.7027789392342684,-0.4200805417932669,-29.0,60.4375,-114.0,-0.21435546875,0.82861328125,0.01611328125
1969/12/31/18:00:08.147000,112,1731186291,249826609,RL_myo,-0.4266737948224589,-0.37137892168426,-0.7057114990033031,-0.4266127629536529,-67.875,49.25,-84.3125,-0.30126953125,0.68017578125,0.048828125
1969/12/31/18:00:08.162000,113,1731186291,264729111,RL_myo,-0.4352104922144726,-0.3543447087080673,-0.7031356164356948,-0.4366142001545838,-103.3125,23.75,-57.625,-0.369140625,0.64794921875,0.02880859375
1969/12/31/18:00:08.183000,114,1731186291,285867582,RL_myo,-0.4477772922948256,-0.3373129473236337,-0.6979393641384252,-0.4456412414252169,-114.0625,-1.0,-64.4375,-0.39208984375,0.6552734375,0.0732421875
1969/12/31/18:00:08.199000,115,1731186291,302363478,RL_myo,-0.4638442321935749,-0.3198083916703069,-0.689602102573053,-0.454994572500408,-132.0625,-21.5,-69.0,-0.36669921875,0.6611328125,0.06201171875
1969/12/31/18:00:08.220000,116,1731186291,323269340,RL_myo,-0.4797748205898331,-0.3047952492081957,-0.6780687262120654,-0.4659815233689576,-138.625,-32.75,-49.375,-0.34912109375,0.65673828125,0.17529296875
1969/12/31/18:00:08.243000,117,1731186291,345783476,RL_myo,-0.4930047641610208,-0.2969136144643929,-0.6647447253332309,-0.4763434246443139,-115.5,-46.4375,-11.875,-0.42236328125,0.6748046875,0.27099609375
1969/12/31/18:00:08.259000,118,1731186291,362288981,RL_myo,-0.5071015183388201,-0.2901384785392648,-0.6483868733700355,-0.488121066755793,-127.875,-59.625,-0.375,-0.4130859375,0.619140625,0.30224609375
1969/12/31/18:00:08.280000,119,1731186291,383275338,RL_myo,-0.5223149210870829,-0.2863027921032374,-0.6300370332299553,-0.4982681719741698,-123.8125,-81.5625,9.6875,-0.68798828125,0.7060546875,0.1396484375
1969/12/31/18:00:08.304000,120,1731186291,407364590,RL_myo,-0.5374215342735225,-0.2871415306333095,-0.6081541663678913,-0.5087989247374922,-125.0,-106.6875,33.9375,-0.76708984375,0.87451171875,-0.025390625
1969/12/31/18:00:08.319000,121,1731186291,422296367,RL_myo,-0.5508016909118734,-0.2934354049755442,-0.5832089704547215,-0.5199812084841176,-114.8125,-124.5625,66.5,-0.80224609375,0.84716796875,0.115234375
1969/12/31/18:00:08.340000,122,1731186291,443243769,RL_myo,-0.5637441916511744,-0.3023480270044297,-0.5541623102947563,-0.5326183350156759,-121.625,-141.5625,87.3125,-0.74658203125,0.86572265625,0.27099609375
1969/12/31/18:00:08.362000,123,1731186291,465681453,RL_myo,-0.5790559038776592,-0.3104003295870335,-0.515401255085037,-0.550188551165377,-170.9375,-168.4375,108.5625,-0.59375,0.9052734375,0.49853515625
1969/12/31/18:00:08.379000,124,1731186291,482276614,RL_myo,-0.5931650928276458,-0.3188895575701666,-0.4743367734804469,-0.5669825817850427,-172.25,-175.875,114.625,-0.51513671875,0.90087890625,0.607421875
1969/12/31/18:00:08.423000,125,1731186291,526564723,RL_myo,-0.6007512401591769,-0.3314110773203628,-0.4358391350174421,-0.5825022692349064,-132.6875,-166.6875,142.25,-0.7236328125,0.80517578125,0.7490234375
1969/12/31/18:00:08.430000,126,1731186291,533258687,RL_myo,-0.6033151677706405,-0.3497213870840435,-0.3934213021193272,-0.5991038631094191,-123.875,-186.1875,183.8125,-0.61376953125,0.8955078125,0.54345703125
1969/12/31/18:00:08.447000,127,1731186291,549692288,RL_myo,-0.6040277628467072,-0.3666766494071958,-0.3480010410985071,-0.6161119799876235,-141.9375,-188.0625,194.875,-0.56396484375,1.12060546875,0.33251953125
1969/12/31/18:00:08.468000,128,1731186291,570722223,RL_myo,-0.6016381216467716,-0.3821726433102134,-0.3065559226041523,-0.6308717045508905,-121.125,-167.375,186.5,-0.4619140625,1.0439453125,0.37744140625
1969/12/31/18:00:08.484000,129,1731186291,587381972,RL_myo,-0.5962538198373202,-0.4005336560483452,-0.2698094306551477,-0.6412932588383379,-80.8125,-167.8125,180.125,-0.6201171875,0.93896484375,0.30126953125
1969/12/31/18:00:08.498000,130,1731186291,601523657,RL_myo,-0.5852248557284145,-0.4228827849976206,-0.2387526995108517,-0.6493682829231756,-30.3125,-157.6875,184.125,-0.39697265625,0.96044921875,0.24609375
1969/12/31/18:00:08.522000,131,1731186291,625505063,RL_myo,-0.5713821456939892,-0.4450457814997403,-0.2109878314103952,-0.6564608373301161,-7.875,-140.5625,175.9375,0.19189453125,0.9970703125,0.46044921875
1969/12/31/18:00:08.542000,132,1731186291,645707485,RL_myo,-0.5574642061268575,-0.4637804359927732,-0.1913346054529996,-0.6614623457415023,14.9375,-107.625,146.8125,0.1171875,0.96630859375,0.478515625
1969/12/31/18:00:08.558000,133,1731186291,661530648,RL_myo,-0.5415260111388133,-0.481166580842827,-0.178087783219098,-0.6659677486246738,41.875,-81.625,134.125,0.19384765625,0.97607421875,0.55908203125
1969/12/31/18:00:08.558000,1,1731186297,341140125,RL_myo,-0.4164883182204211,-0.5077324617930368,-0.0950281816338211,-0.7481409444234938,134.3125,10.5,17.25,0.72265625,0.505859375,0.39990234375
1969/12/31/18:00:08.571000,2,1731186297,354472823,RL_myo,-0.399439553961757,-0.5182033999525254,-0.1171160433999406,-0.7471259006264064,168.875,15.6875,11.5,0.87060546875,0.71923828125,0.42578125
1969/12/31/18:00:08.593000,3,1731186297,376473335,RL_myo,-0.3797479502372243,-0.5284245826348262,-0.1478221689930179,-0.7447869232955397,212.375,35.625,-5.625,1.10595703125,0.9970703125,0.41015625
1969/12/31/18:00:08.617000,4,1731186297,399739366,RL_myo,-0.360208036173274,-0.5312183576503181,-0.1859020125692634,-0.7439742394022721,224.8125,88.3125,-30.25,1.255859375,1.33935546875,0.40234375
1969/12/31/18:00:08.631000,5,1731186297,413934864,RL_myo,-0.3495848209026362,-0.5227293978755376,-0.2237391678472529,-0.7446376396356608,169.375,130.5625,-72.375,0.9677734375,1.5673828125,0.2919921875
1969/12/31/18:00:08.653000,6,1731186297,436353644,RL_myo,-0.3474045507825683,-0.5057873352661882,-0.2592717026922611,-0.7458333820384724,115.875,151.3125,-107.125,0.5830078125,1.64599609375,0.21533203125
1969/12/31/18:00:08.677000,7,1731186297,459622636,RL_myo,-0.3542896876317885,-0.4858132495347177,-0.2938071587010215,-0.743062350890099,85.75,135.9375,-155.125,0.3798828125,1.6474609375,0.2802734375
1969/12/31/18:00:08.691000,8,1731186297,474044101,RL_myo,-0.3727120442693453,-0.4637082220989824,-0.3259018038968894,-0.7347437859765266,50.5625,104.3125,-215.25,0.2763671875,1.4169921875,0.3408203125
1969/12/31/18:00:08.713000,9,1731186297,496502194,RL_myo,-0.3963362982992487,-0.4402787274300554,-0.3559947071111052,-0.72273089689863,34.8125,86.0625,-245.625,0.20947265625,1.1044921875,0.33349609375
1969/12/31/18:00:08.737000,10,1731186297,519746736,RL_myo,-0.417635897965574,-0.4184903335306066,-0.3880968398601615,-0.706984398952683,61.875,79.3125,-247.75,0.1142578125,0.79052734375,0.322265625
1969/12/31/18:00:08.758000,11,1731186297,540735097,RL_myo,-0.4316715462837895,-0.3996913553813852,-0.4285589704516853,-0.6857431774416315,133.75,89.9375,-244.625,0.001953125,0.76416015625,0.31689453125
1969/12/31/18:00:08.773000,12,1731186297,556466275,RL_myo,-0.4399730857645964,-0.3819935558053279,-0.4762865808443488,-0.6585253981689548,190.75,102.5625,-245.4375,-0.37841796875,1.052734375,0.2236328125
1969/12/31/18:00:08.797000,13,1731186297,579753534,RL_myo,-0.4501663507972734,-0.3725346265274616,-0.5216339208601268,-0.621664106456213,227.75,40.625,-251.9375,-0.29150390625,1.0087890625,0.28076171875
1969/12/31/18:00:08.817000,14,1731186297,600546605,RL_myo,-0.4584005725363487,-0.3592869352311922,-0.5638613885851852,-0.5855272391044773,207.75,53.4375,-246.25,-0.47900390625,0.92626953125,0.1328125
1969/12/31/18:00:08.833000,15,1731186297,616398292,RL_myo,-0.4690239525826021,-0.3456801128728508,-0.5995694613105378,-0.5486695294362515,183.9375,28.875,-243.0,-0.60986328125,0.93603515625,0.1796875
1969/12/31/18:00:08.856000,16,1731186297,639668271,RL_myo,-0.4807521421603797,-0.3318941410521956,-0.6273519448097682,-0.5149302809962072,147.375,12.0,-224.0,-0.599609375,0.84228515625,0.25634765625
1969/12/31/18:00:08.878000,17,1731186297,660630316,RL_myo,-0.4935000349333763,-0.3193163718490508,-0.6477264247771362,-0.4847115109375308,114.3125,-8.6875,-199.4375,-0.54248046875,0.58056640625,0.240234375
1969/12/31/18:00:08.893000,18,1731186297,676440996,RL_myo,-0.5048367815964684,-0.3131428344259525,-0.6622931278874364,-0.4565623746522219,111.125,-33.4375,-154.9375,-0.52392578125,0.3798828125,0.23974609375
1969/12/31/18:00:08.916000,19,1731186297,699595767,RL_myo,-0.512910343828222,-0.3127874240980055,-0.6725082197338385,-0.4322264463340633,107.375,-41.5625,-105.25,-0.50048828125,0.28515625,0.2216796875
1969/12/31/18:00:08.937000,20,1731186297,720491096,RL_myo,-0.5169820563963506,-0.3211379507446107,-0.6785275059632424,-0.4113397544695317,116.375,-53.6875,-45.125,-0.45263671875,0.251953125,0.203125
1969/12/31/18:00:08.953000,21,1731186297,736459334,RL_myo,-0.5177189985355312,-0.337679973935765,-0.6801813319201339,-0.3940718582510816,121.0,-66.9375,12.125,-0.38916015625,0.28515625,0.09521484375
1969/12/31/18:00:08.976000,22,1731186297,759642443,RL_myo,-0.51713142583176,-0.3584459888953058,-0.6766713228132566,-0.3823708701564943,98.6875,-77.1875,62.5625,-0.330078125,0.41357421875,-0.10595703125
1969/12/31/18:00:08.997000,23,1731186297,780673316,RL_myo,-0.5182167047447392,-0.3826662040689572,-0.667804402698968,-0.3729011972665595,86.375,-103.1875,81.6875,-0.31591796875,0.67919921875,-0.1806640625
1969/12/31/18:00:09.022000,24,1731186297,804878070,RL_myo,-0.5204691881603791,-0.4079897423607099,-0.6584594361001794,-0.3592873019113686,102.8125,-121.125,69.1875,-0.14208984375,0.7763671875,-0.14501953125
1969/12/31/18:00:09.036000,25,1731186297,819636260,RL_myo,-0.5211573970498433,-0.4338807747543431,-0.6484714069158666,-0.3458717612227968,107.625,-117.375,73.1875,0.1494140625,0.62939453125,-0.02880859375
1969/12/31/18:00:09.058000,26,1731186297,841296611,RL_myo,-0.5162672744112877,-0.4611556360623821,-0.6357673717392581,-0.3414724435903954,85.625,-86.5,122.25,0.2548828125,0.5888671875,-0.1123046875
1969/12/31/18:00:09.073000,27,1731186297,856508128,RL_myo,-0.5072296343075499,-0.4881879250181796,-0.622090201238943,-0.3426287049696288,71.1875,-60.1875,147.375,0.26123046875,0.77197265625,-0.3251953125
1969/12/31/18:00:09.096000,28,1731186297,879732903,RL_myo,-0.5002189118673428,-0.5088244348753096,-0.6098935561603657,-0.3448312410993762,47.625,-47.375,118.875,0.29248046875,0.890625,-0.26025390625
1969/12/31/18:00:09.125000,29,1731186297,908150804,RL_myo,-0.4933786300162585,-0.5248708829960197,-0.5975593971411661,-0.3521517435915156,14.375,-31.0625,95.75,0.27978515625,0.81884765625,-0.26171875
1969/12/31/18:00:09.133000,30,1731186297,916419081,RL_myo,-0.4847115244785551,-0.5398839266604506,-0.5873053387128099,-0.3586816456006633,8.75,-19.25,98.125,0.16015625,0.720703125,-0.462890625
1969/12/31/18:00:09.156000,31,1731186297,938881951,RL_myo,-0.4773851723662667,-0.5530026907198596,-0.5801615249953632,-0.3601444518196547,19.875,-25.4375,70.6875,0.08251953125,0.8544921875,-0.55517578125
1969/12/31/18:00:09.169000,32,1731186297,952411904,RL_myo,-0.4761636895134576,-0.5595320053139425,-0.5756441834774331,-0.3589231809829075,17.75,-31.4375,15.3125,0.12939453125,1.0498046875,-0.30126953125
1969/12/31/18:00:09.192000,33,1731186297,975613500,RL_myo,-0.4761714119779784,-0.5612499749486656,-0.5725408889727526,-0.3611871848353853,-11.5625,-10.25,4.5,0.09912109375,1.083984375,-0.36328125
1969/12/31/18:00:09.207000,34,1731186297,989924066,RL_myo,-0.4741580555733448,-0.5630817635113502,-0.5691849692723663,-0.3662533777185793,-33.5625,5.3125,29.375,-0.05615234375,1.0263671875,-0.62255859375
1969/12/31/18:00:09.229000,35,1731186298,12567534,RL_myo,-0.4707215020117138,-0.5679416955427212,-0.5650733031409902,-0.3695343828187381,-8.875,-1.3125,45.875,-0.125,0.9833984375,-0.498046875
1969/12/31/18:00:09.253000,36,1731186298,35755812,RL_myo,-0.4672715561854071,-0.5720048360200674,-0.5608357275062312,-0.3740735851437252,-0.1875,4.125,40.1875,0.00146484375,0.9130859375,-0.25439453125
1969/12/31/18:00:09.267000,37,1731186298,50080652,RL_myo,-0.4638781438512384,-0.5735464801886514,-0.5588996239165428,-0.3788043203374078,-6.0625,16.75,28.1875,-0.03857421875,0.9443359375,-0.3076171875
1969/12/31/18:00:09.289000,38,1731186298,72550632,RL_myo,-0.4608400623218006,-0.5752719411263796,-0.557512113535909,-0.3819278386981629,-4.6875,12.375,26.5,-0.09716796875,0.9384765625,-0.3671875
1969/12/31/18:00:09.312000,39,1731186298,95604058,RL_myo,-0.4568068715864338,-0.5786830669849787,-0.5553697436788975,-0.3847308641925022,7.6875,8.75,33.0,-0.0341796875,0.82470703125,-0.2626953125
1969/12/31/18:00:09.326000,40,1731186298,109866285,RL_myo,-0.4521321495428784,-0.5821933820855181,-0.5538130568239847,-0.3871930827078862,16.8125,10.0625,29.1875,0.009765625,0.93115234375,-0.232421875
1969/12/31/18:00:09.349000,41,1731186298,132416551,RL_myo,-0.4459058469119735,-0.5863423858860292,-0.559610006889664,-0.3797462605374074,55.3125,0.0625,-11.4375,-0.0810546875,1.35791015625,-0.63623046875
1969/12/31/18:00:09.371000,42,1731186298,154900258,RL_myo,-0.4397265275295349,-0.588946702381681,-0.5686844945898968,-0.3692970462291763,85.6875,0.25,-42.8125,0.0205078125,1.26123046875,-0.3818359375
1969/12/31/18:00:09.404000,43,1731186298,187547327,RL_myo,-0.4349693566701056,-0.5909040706159623,-0.5692379949013716,-0.3709476287134702,16.4375,17.25,16.375,-0.04345703125,1.24853515625,-0.46826171875
1969/12/31/18:00:09.425000,44,1731186298,208239833,RL_myo,-0.4329614900663201,-0.5923162194944511,-0.5676592640409985,-0.3734552238110816,-4.75,10.6875,27.9375,-0.16796875,1.08837890625,-0.45703125
1969/12/31/18:00:09.441000,45,1731186298,224614856,RL_myo,-0.434868214495653,-0.5916038741201916,-0.5657254007242397,-0.3752988983766696,-20.9375,-2.25,7.75,-0.09033203125,0.861328125,-0.34619140625
1969/12/31/18:00:09.464000,46,1731186298,247154366,RL_myo,-0.4372950812662241,-0.5916452920858027,-0.5627160710781,-0.3769343226657641,-25.4375,-9.0625,12.5,-0.09033203125,0.8056640625,-0.37255859375
1969/12/31/18:00:09.479000,47,1731186298,262227200,RL_myo,-0.4388209028595695,-0.5937814414354313,-0.5610682280929099,-0.3742489257767566,-1.0,-18.625,15.4375,-0.2392578125,0.8720703125,-0.3974609375
1969/12/31/18:00:09.494000,48,1731186298,277179211,RL_myo,-0.4374551446251642,-0.5957641073982776,-0.5615879242244366,-0.3719101076096192,12.5,-5.3125,5.6875,-0.1103515625,0.9169921875,-0.42431640625
1969/12/31/18:00:09.507000,49,1731186298,290025647,RL_myo,-0.4375969565463559,-0.5962792559913385,-0.5597823271189925,-0.3736357835393013,13.375,-1.4375,4.75,0.06396484375,0.9013671875,0.00927734375
1969/12/31/18:00:09.529000,50,1731186298,312377295,RL_myo,-0.4312455756734528,-0.6004847465399239,-0.5670397174613714,-0.3631959270920914,54.4375,2.5625,3.875,-0.47119140625,0.865234375,-0.74560546875
1969/12/31/18:00:09.553000,51,1731186298,335796894,RL_myo,-0.4294775709655141,-0.605858156455117,-0.5663098452449915,-0.3574605845026312,42.75,-23.5625,16.875,-0.173828125,1.03515625,-0.326171875
1969/12/31/18:00:09.568000,52,1731186298,351576535,RL_myo,-0.4271624093690174,-0.6100750741609798,-0.5670475704311388,-0.3518490198617495,44.875,-17.75,3.5,-0.0986328125,1.26708984375,-0.42578125
1969/12/31/18:00:09.589000,53,1731186298,372489127,RL_myo,-0.4265340108630447,-0.6121242136151579,-0.5672066242611443,-0.348782640160581,13.6875,-11.625,2.4375,-0.11328125,1.20654296875,-0.5751953125
1969/12/31/18:00:09.612000,54,1731186298,395716751,RL_myo,-0.4269755037287444,-0.6141587327075979,-0.5646622870923875,-0.3487943115794417,3.625,-7.4375,23.875,-0.2080078125,1.11376953125,-0.39404296875
1969/12/31/18:00:09.627000,55,1731186298,409956425,RL_myo,-0.4278919210954062,-0.6164792889722861,-0.5585603853751473,-0.3533724466042507,-21.875,-4.4375,42.75,-0.1142578125,0.990234375,-0.36865234375
1969/12/31/18:00:09.649000,56,1731186298,432538790,RL_myo,-0.4294748106600878,-0.6172670505920319,-0.5538558912519962,-0.3574582870592773,-21.8125,-3.25,27.25,-0.052734375,0.9375,-0.31298828125
1969/12/31/18:00:09.672000,57,1731186298,455566046,RL_myo,-0.4292367911565325,-0.6188016245607968,-0.5509342405474221,-0.3595994843586364,-11.0,-0.3125,25.0,-0.087890625,0.82958984375,-0.37744140625
1969/12/31/18:00:09.687000,58,1731186298,469888729,RL_myo,-0.4268575407381296,-0.6215494988385919,-0.5503251994331877,-0.3586238074602873,12.75,-0.5,19.875,-0.12353515625,0.86572265625,-0.4189453125
1969/12/31/18:00:09.709000,59,1731186298,492560630,RL_myo,-0.4256457906345708,-0.6224169447793739,-0.552961121759279,-0.3544810369953524,13.25,-4.1875,-8.3125,-0.1259765625,0.99169921875,-0.5927734375
1969/12/31/18:00:09.733000,60,1731186298,515711770,RL_myo,-0.4269644094564186,-0.6206119324989025,-0.5573850702637896,-0.34909039766877,13.5,-7.125,-32.625,-0.126953125,1.19091796875,-0.560546875
1969/12/31/18:00:09.747000,61,1731186298,530058807,RL_myo,-0.430891277477738,-0.6154543402387408,-0.5610131193449529,-0.3475815616481186,-1.75,-1.0625,-48.0625,0.02490234375,1.37548828125,-0.384765625
1969/12/31/18:00:09.778000,62,1731186298,561356556,RL_myo,-0.4360806506454557,-0.6065457671258978,-0.5662639995365345,-0.3482541907044045,-9.0,14.5,-64.125,0.02099609375,1.3310546875,-0.1904296875
1969/12/31/18:00:09.792000,63,1731186298,575553678,RL_myo,-0.443017005634841,-0.5946156062681162,-0.5736823051339723,-0.3479322150605081,-19.3125,23.375,-71.4375,-0.2490234375,1.2607421875,-0.2119140625
1969/12/31/18:00:09.807000,64,1731186298,589918656,RL_myo,-0.4496905272089814,-0.5826202188839491,-0.5827422847165249,-0.3445918453612798,-3.75,20.6875,-80.5,-0.3291015625,1.1259765625,-0.1259765625
1969/12/31/18:00:09.829000,65,1731186298,612433225,RL_myo,-0.4554243912849133,-0.5705316550162651,-0.5927474789813828,-0.3401950625867203,9.25,22.6875,-87.6875,-0.30517578125,1.0224609375,-0.0087890625
1969/12/31/18:00:09.853000,66,1731186298,636202484,RL_myo,-0.4607230872114792,-0.558311670659771,-0.6026812142288193,-0.3358536427241714,6.5,25.5,-85.0625,-0.34814453125,0.95703125,-0.03271484375
1969/12/31/18:00:09.867000,67,1731186298,650087847,RL_myo,-0.4647540940130508,-0.5475126693881917,-0.6116566684437026,-0.3318277096715636,8.4375,23.5625,-79.5,-0.27783203125,0.8740234375,-0.037109375
1969/12/31/18:00:09.889000,68,1731186298,672456306,RL_myo,-0.466353417555693,-0.5376400019955634,-0.6201566648060983,-0.3299445851728931,4.1875,32.4375,-70.6875,-0.18115234375,0.82470703125,-0.1220703125
1969/12/31/18:00:09.914000,69,1731186298,697047168,RL_myo,-0.4657185445444823,-0.5293726451813445,-0.628668159789374,-0.3280963039537592,12.375,39.375,-54.0625,-0.2685546875,0.70068359375,-0.1142578125
1969/12/31/18:00:09.944000,70,1731186298,727112402,RL_myo,-0.4652974059142336,-0.5216896938293374,-0.6362441574837205,-0.3263917270237829,5.5625,35.9375,-45.1875,-0.34814453125,0.71533203125,-0.21142578125
1969/12/31/18:00:09.966000,71,1731186298,749043640,RL_myo,-0.4627874274680225,-0.5169817088331292,-0.643007824845455,-0.3241892146525301,14.0,31.0625,-33.0,-0.26123046875,0.5908203125,-0.2666015625
1969/12/31/18:00:09.972000,72,1731186298,755673151,RL_myo,-0.4576265732168552,-0.5153029017964669,-0.6484772393210305,-0.3232926058055057,22.375,32.125,-18.1875,-0.125,0.595703125,-0.27880859375
1969/12/31/18:00:09.996000,73,1731186298,779613878,RL_myo,-0.4520541910630772,-0.5143054769931891,-0.6543098396634603,-0.3209603065749592,26.5,30.1875,-14.25,-0.23291015625,0.6376953125,-0.38818359375
1969/12/31/18:00:10.018000,74,1731186298,801847471,RL_myo,-0.4457170934834125,-0.5150495073129561,-0.6593903160337927,-0.3182211317845423,25.375,23.5,-6.5625,-0.18603515625,0.578125,-0.5
1969/12/31/18:00:10.050000,75,1731186298,832882742,RL_myo,-0.4370453184916531,-0.518155949447582,-0.6623729704775745,-0.3190107358966444,23.0625,28.875,11.25,-0.01318359375,0.58740234375,-0.48828125
1969/12/31/18:00:10.050000,76,1731186298,833605227,RL_myo,-0.4285049767395842,-0.520541083408619,-0.6653087525193289,-0.3206005758172676,19.9375,33.25,12.5625,-0.04833984375,0.63623046875,-0.48974609375
1969/12/31/18:00:10.077000,77,1731186298,860603921,RL_myo,-0.4224677519557477,-0.5223781405647565,-0.6676357611447449,-0.3207874175497558,9.0625,22.5625,13.4375,-0.23291015625,0.76318359375,-0.6611328125
1969/12/31/18:00:10.101000,78,1731186298,884495016,RL_myo,-0.4168477431329974,-0.5256675858864578,-0.6681770266207987,-0.3216380097087696,5.75,12.625,19.1875,-0.10546875,0.7041015625,-0.63623046875
1969/12/31/18:00:10.131000,79,1731186298,913753524,RL_myo,-0.4107357427006592,-0.5289519586904329,-0.6670641408199414,-0.3263914936052192,-4.125,21.25,27.5625,-0.00048828125,0.75732421875,-0.5537109375
1969/12/31/18:00:10.131000,80,1731186298,914619774,RL_myo,-0.4063448630345442,-0.5312144319394222,-0.6658489720196572,-0.3306663364255273,-5.125,20.5,29.375,-0.17138671875,0.8740234375,-0.537109375
1969/12/31/18:00:10.154000,81,1731186298,937100648,RL_myo,-0.4031673324525178,-0.5338335841601838,-0.6651101406399546,-0.3318227045934513,-1.0,8.5,24.3125,-0.23291015625,0.875,-0.6328125
1969/12/31/18:00:10.190000,82,1731186298,973215687,RL_myo,-0.3996352999914395,-0.5374447849304546,-0.6639023813846792,-0.3326835705945841,3.3125,1.625,21.125,-0.09130859375,0.8671875,-0.62646484375
1969/12/31/18:00:10.206000,83,1731186298,988976974,RL_myo,-0.396715683391062,-0.5406929598709875,-0.6619658926245322,-0.3347670035999962,3.5,2.375,20.625,-0.0576171875,1.00341796875,-0.5498046875
1969/12/31/18:00:10.220000,84,1731186299,3050619,RL_myo,-0.3955974557717899,-0.5429242466130582,-0.6600411114118957,-0.3362761464521077,-6.6875,-1.375,18.625,-0.1591796875,0.9921875,-0.61474609375
1969/12/31/18:00:10.237000,85,1731186299,19748801,RL_myo,-0.3945635915161478,-0.545309464840956,-0.6579721701679179,-0.3376829623911594,-12.9375,-4.9375,17.3125,-0.10107421875,0.90380859375,-0.6728515625
1969/12/31/18:00:10.259000,86,1731186299,42134098,RL_myo,-0.3922441590608469,-0.5474451698733153,-0.6562628664044324,-0.3402460225243849,-7.6875,2.875,15.1875,-0.01220703125,0.919921875,-0.59765625
1969/12/31/18:00:10.290000,87,1731186299,72780592,RL_myo,-0.3899353353629557,-0.548314141947221,-0.6556699495702354,-0.3426353064216049,-1.625,10.4375,9.75,-0.064453125,0.96533203125,-0.51708984375
1969/12/31/18:00:10.290000,88,1731186299,73572326,RL_myo,-0.38797625022952,-0.5489159028731009,-0.6563310673223623,-0.3426299620557692,6.125,8.5625,6.875,-0.19287109375,0.95068359375,-0.54443359375
1969/12/31/18:00:10.317000,89,1731186299,100632856,RL_myo,-0.3852431392436362,-0.5504606896131741,-0.6570861275502198,-0.3417873225228712,12.75,6.3125,7.875,-0.15087890625,0.8896484375,-0.54638671875
1969/12/31/18:00:10.342000,90,1731186299,124733147,RL_myo,-0.381642898528912,-0.5521096529813749,-0.6574535907489909,-0.3424593480962298,10.875,11.1875,10.4375,-0.0703125,0.85791015625,-0.5029296875
1969/12/31/18:00:10.364000,91,1731186299,147094309,RL_myo,-0.3773560248060313,-0.5538583090918219,-0.6585268490469155,-0.3423241053108571,18.9375,15.75,13.25,-0.140625,0.80712890625,-0.46044921875
1969/12/31/18:00:10.369000,92,1731186299,152566323,RL_myo,-0.3724760801447571,-0.5560592440109589,-0.660301279876475,-0.3406785973075593,29.4375,15.4375,13.9375,-0.1904296875,0.80810546875,-0.46533203125
1969/12/31/18:00:10.394000,93,1731186299,177227333,RL_myo,-0.3645941805091783,-0.5594634838847736,-0.6639471191428441,-0.33652030654965,41.3125,16.875,9.125,-0.12548828125,0.80908203125,-0.7119140625
1969/12/31/18:00:10.416000,94,1731186299,198992176,RL_myo,-0.3637431676965939,-0.5581260517760657,-0.6659673566955089,-0.3356690305924944,25.875,6.9375,-16.3125,-0.1005859375,1.3447265625,-0.4970703125
1969/12/31/18:00:10.453000,95,1731186299,236283643,RL_myo,-0.3610148779803115,-0.5574216197116121,-0.6708224047137116,-0.3300707455819991,27.75,8.9375,-14.3125,-0.294921875,0.89208984375,-0.71826171875
1969/12/31/18:00:10.455000,96,1731186299,238027519,RL_myo,-0.3582044280211136,-0.5611401450376757,-0.6706949155774438,-0.3270774458621823,27.8125,-3.125,18.8125,-0.19189453125,0.810546875,-0.51171875
1969/12/31/18:00:10.475000,97,1731186299,258104103,RL_myo,-0.3558770046383048,-0.5630192707577366,-0.671045732464099,-0.3256662145000848,23.0625,-2.375,-0.1875,0.00537109375,0.9013671875,-0.48095703125
1969/12/31/18:00:10.499000,98,1731186299,282290515,RL_myo,-0.3533660188351874,-0.5636157485220995,-0.6732873782020359,-0.3227287577893732,30.9375,2.75,-8.5,-0.087890625,0.9609375,-0.52294921875
1969/12/31/18:00:10.528000,99,1731186299,311281805,RL_myo,-0.3502011723658668,-0.5656438594435089,-0.675440288353616,-0.3180983810336176,40.6875,0.5,0.125,-0.16943359375,0.87255859375,-0.50537109375
1969/12/31/18:00:10.530000,100,1731186299,312982012,RL_myo,-0.3475086458680266,-0.567768340799131,-0.6767080901623954,-0.3145520830354424,33.5625,-0.75,3.4375,-0.14404296875,0.8408203125,-0.49560546875
1969/12/31/18:00:10.551000,101,1731186299,334731426,RL_myo,-0.3459265713816495,-0.5688746598179879,-0.6772666130243763,-0.3130916215927773,16.125,-1.0,0.0625,-0.07763671875,0.8740234375,-0.56689453125
1969/12/31/18:00:10.582000,102,1731186299,364773856,RL_myo,-0.3486687208425163,-0.5669147116937046,-0.6767700762161147,-0.3146745885986372,-22.5625,-5.0625,-10.1875,-0.08203125,0.9052734375,-0.65966796875
1969/12/31/18:00:10.604000,103,1731186299,387205921,RL_myo,-0.3529429306446946,-0.5655142997326198,-0.6751261799743407,-0.3159580757301719,-30.8125,-13.4375,-4.75,-0.13720703125,0.8466796875,-0.6728515625
1969/12/31/18:00:10.609000,104,1731186299,392443019,RL_myo,-0.3589169230709561,-0.562573745429021,-0.6707797826003874,-0.323641632893263,-73.5,-8.8125,-1.0,0.03955078125,0.76953125,-0.66748046875
1969/12/31/18:00:10.634000,105,1731186299,417177615,RL_myo,-0.3684526899825717,-0.554784653294944,-0.666718102595596,-0.3345796995998771,-102.125,2.125,-14.625,0.07275390625,0.77734375,-0.841796875
1969/12/31/18:00:10.656000,106,1731186299,438960269,RL_myo,-0.3787654489762591,-0.5451390574050833,-0.6628700517774977,-0.3463573836513487,-109.4375,5.4375,-23.9375,0.15625,0.85595703125,-0.7294921875
1969/12/31/18:00:10.687000,107,1731186299,470385164,RL_myo,-0.3881614667491967,-0.5334168583943364,-0.6594472717335016,-0.3604530853177289,-119.9375,20.625,-27.625,0.26171875,0.7666015625,-0.6650390625
1969/12/31/18:00:10.689000,108,1731186299,471827321,RL_myo,-0.396036920780966,-0.5170024280991775,-0.6586577976680821,-0.3768728595812089,-128.1875,48.375,-46.9375,0.38232421875,0.73876953125,-0.576171875
1969/12/31/18:00:10.715000,109,1731186299,498031411,RL_myo,-0.4008021512527096,-0.4965625555949514,-0.6623275385098835,-0.3925627283169527,-114.875,76.3125,-72.375,0.52099609375,0.7099609375,-0.46484375
1969/12/31/18:00:10.731000,110,1731186299,514675973,RL_myo,-0.399091274550315,-0.476053210199183,-0.6687937278670061,-0.4084292413657606,-97.6875,95.125,-97.5,0.53125,0.72802734375,-0.41064453125
1969/12/31/18:00:10.754000,111,1731186299,537239652,RL_myo,-0.3997603622719051,-0.4509663079125354,-0.6819728684009569,-0.4144080702024788,-52.625,99.25,-128.9375,0.41259765625,0.73876953125,-0.32861328125
1969/12/31/18:00:10.778000,112,1731186299,561057330,RL_myo,-0.3991388816428575,-0.4255040187788995,-0.6994084990255577,-0.4128707239012127,-9.4375,96.0,-153.5625,0.27978515625,0.69775390625,-0.25439453125
1969/12/31/18:00:10.794000,113,1731186299,577489405,RL_myo,-0.3985986667378502,-0.3993310483028256,-0.7177339336758718,-0.4080585952854489,5.625,92.6875,-164.8125,0.17236328125,0.6806640625,-0.1591796875
1969/12/31/18:00:10.807000,114,1731186299,590557659,RL_myo,-0.3989075047857581,-0.3730908165170348,-0.7349516787989749,-0.4018980904244519,7.25,84.25,-167.0625,0.068359375,0.73681640625,-0.13525390625
1969/12/31/18:00:10.829000,115,1731186299,612199814,RL_myo,-0.4007367089502484,-0.3472115652174784,-0.7499623331679337,-0.3954879491315275,2.4375,72.5625,-163.0,-0.10693359375,0.77685546875,-0.078125
1969/12/31/18:00:10.849000,116,1731186299,632499682,RL_myo,-0.4065197289149784,-0.3232750343886264,-0.7595773226356134,-0.3915063895795806,-22.75,44.8125,-145.4375,-0.25390625,0.7978515625,-0.00146484375
1969/12/31/18:00:10.866000,117,1731186299,649036240,RL_myo,-0.4162414741342358,-0.3010121628196555,-0.761013920964778,-0.396222822592296,-82.75,21.125,-111.9375,-0.28857421875,0.8125,-0.02099609375
1969/12/31/18:00:10.887000,118,1731186299,670009053,RL_myo,-0.4278300664907406,-0.2793406867800456,-0.7541649260522229,-0.4125111867918568,-155.125,12.0625,-69.8125,-0.39208984375,0.7822265625,-0.05029296875
1969/12/31/18:00:10.909000,119,1731186299,692425510,RL_myo,-0.4409480852081375,-0.2607239058836212,-0.7398162891201443,-0.436187676814195,-200.375,-7.5625,-27.0625,-0.54736328125,0.6142578125,0.03076171875
1969/12/31/18:00:10.926000,120,1731186299,708955031,RL_myo,-0.4579862432377836,-0.2435188047066573,-0.7182278931799356,-0.4637843100165135,-238.0,-40.1875,-8.3125,-0.59130859375,0.5107421875,0.0419921875
1969/12/31/18:00:10.947000,121,1731186299,729891526,RL_myo,-0.4761009224082101,-0.2311234704730023,-0.691112273471423,-0.4922130418179995,-245.5625,-71.875,19.0,-0.6201171875,0.5146484375,0.0703125
1969/12/31/18:00:10.969000,122,1731186299,752532801,RL_myo,-0.4886186309077506,-0.2270373853331042,-0.6662814880864243,-0.5155335467496589,-188.0625,-73.9375,53.5625,-0.80224609375,0.5478515625,0.150390625
1969/12/31/18:00:10.986000,123,1731186299,769046142,RL_myo,-0.4948492871249254,-0.2333261993930179,-0.6383970823047261,-0.5414168754421822,-169.1875,-86.4375,128.5,-1.17431640625,0.744140625,0.23974609375
1969/12/31/18:00:11.007000,124,1731186299,790031870,RL_myo,-0.5104711334872817,-0.2479727660639437,-0.6053757978312228,-0.5580760455054644,-141.4375,-174.625,104.375,-0.84130859375,0.94970703125,0.24755859375
1969/12/31/18:00:11.029000,125,1731186299,812600687,RL_myo,-0.5272519470722625,-0.2563326979631326,-0.5624671772448168,-0.5830348246766205,-224.9375,-176.8125,115.25,-0.68896484375,1.0830078125,0.20458984375
1969/12/31/18:00:11.053000,126,1731186299,836587256,RL_myo,-0.5372380260159351,-0.272860526447489,-0.5214925516649057,-0.6041257775226333,-169.875,-182.1875,150.4375,-0.64453125,0.92919921875,0.31103515625
1969/12/31/18:00:11.070000,127,1731186299,852957542,RL_myo,-0.5422103751660149,-0.2914899540514281,-0.4839245908027164,-0.6219795062265712,-132.625,-170.125,159.9375,-0.64208984375,0.8994140625,0.4443359375
1969/12/31/18:00:11.089000,128,1731186299,872581876,RL_myo,-0.5497310926680359,-0.3131031981111384,-0.4407858278281953,-0.6367652370162783,-141.5,-210.6875,159.1875,-0.59130859375,1.02001953125,0.4189453125
1969/12/31/18:00:11.106000,129,1731186299,889131719,RL_myo,-0.5540314446378236,-0.3373134825416668,-0.4011509898220329,-0.6467972295959082,-102.375,-211.0625,157.75,-0.607421875,0.9833984375,0.439453125
1969/12/31/18:00:11.127000,130,1731186299,909895656,RL_myo,-0.5553174787180313,-0.3595923271355797,-0.3707609279274689,-0.6518068658873034,-56.5625,-176.125,128.5625,-0.41845703125,0.953125,0.4931640625
1969/12/31/18:00:11.174000,131,1731186299,957152494,RL_myo,-0.5539040636514952,-0.3825331281365769,-0.3472580566523808,-0.6528939701348278,-13.25,-158.875,112.0625,-0.2861328125,0.9853515625,0.58984375
1969/12/31/18:00:11.196000,132,1731186299,978873086,RL_myo,-0.5480596798612717,-0.4061622683158978,-0.325784250679228,-0.654620058595991,1.5,-146.625,132.3125,-0.50390625,1.03955078125,0.39306640625
1969/12/31/18:00:11.197000,133,1731186299,979795515,RL_myo,-0.5422064812307975,-0.4286263077086775,-0.302778743064609,-0.6562138773293038,-9.0,-147.4375,134.25,-0.5400390625,1.01416015625,0.27783203125
1969/12/31/18:00:11.197000,1,1731186305,725350656,RL_myo,-0.4145876447778983,-0.4761685270951218,-0.1659449147874437,-0.7575241935791658,117.625,33.8125,-9.0625,1.18310546875,0.8330078125,0.70166015625
1969/12/31/18:00:11.218000,2,1731186305,745906885,RL_myo,-0.4026893706135703,-0.4759278132835133,-0.1940818730753491,-0.7574075612783279,152.0,82.875,-28.6875,1.2275390625,1.169921875,0.6484375
1969/12/31/18:00:11.233000,3,1731186305,760683525,RL_myo,-0.3959719594650557,-0.4664632685251881,-0.2261214719201651,-0.757949408846567,128.625,126.75,-64.25,0.8193359375,1.451171875,0.41357421875
1969/12/31/18:00:11.255000,4,1731186305,783214040,RL_myo,-0.3962334318976983,-0.4488448333603932,-0.2546953344591951,-0.7593863770288296,72.625,146.9375,-90.5625,0.51904296875,1.5517578125,0.26318359375
1969/12/31/18:00:11.278000,5,1731186305,805864133,RL_myo,-0.4038518923992832,-0.4265559733986082,-0.2800169989916747,-0.7593050314854893,30.0625,144.75,-123.5625,0.330078125,1.5791015625,0.208984375
1969/12/31/18:00:11.293000,6,1731186305,820700615,RL_myo,-0.4167754406699093,-0.4020671552399125,-0.3044187872399337,-0.7562866101598353,13.8125,135.5625,-156.3125,0.2431640625,1.4990234375,0.2685546875
1969/12/31/18:00:11.315000,7,1731186305,843315789,RL_myo,-0.4324036271591346,-0.3756449294515842,-0.3270033358247909,-0.7516560440496687,1.75,129.875,-173.0625,0.11083984375,1.12744140625,0.3388671875
1969/12/31/18:00:11.338000,8,1731186305,865856154,RL_myo,-0.4482649932013435,-0.3513494303417474,-0.3547671076214309,-0.7414528798370487,42.1875,119.625,-194.3125,-0.115234375,0.8505859375,0.3671875
1969/12/31/18:00:11.354000,9,1731186305,882220000,RL_myo,-0.4581763605620706,-0.3304948704467313,-0.3958614459312095,-0.7239760209121195,137.75,135.1875,-206.125,-0.33154296875,0.75048828125,0.46923828125
1969/12/31/18:00:11.375000,10,1731186305,903334528,RL_myo,-0.463977426718941,-0.3171916188711308,-0.4451180443384947,-0.6971257784772091,221.5625,116.6875,-210.4375,-0.47412109375,0.79443359375,0.4599609375
1969/12/31/18:00:11.391000,11,1731186305,919166057,RL_myo,-0.4721368126883342,-0.3094278232070649,-0.4948403926159531,-0.6606619696679443,257.1875,73.75,-234.1875,-0.44580078125,1.044921875,0.37841796875
1969/12/31/18:00:11.414000,12,1731186305,942136202,RL_myo,-0.4807435045706564,-0.298198903558744,-0.5409813919657609,-0.6223361071609729,237.0625,73.9375,-245.9375,-0.44970703125,1.15673828125,0.23779296875
1969/12/31/18:00:11.435000,13,1731186305,963376168,RL_myo,-0.4919797682512609,-0.2842264955645853,-0.5807814755835502,-0.5829786312288853,207.9375,56.5,-254.9375,-0.59716796875,1.05322265625,0.259765625
1969/12/31/18:00:11.451000,14,1731186305,978997880,RL_myo,-0.5036295354923713,-0.2689645374351527,-0.614096023524508,-0.5448866326800643,181.0625,44.75,-246.0,-0.60400390625,0.775390625,0.37353515625
1969/12/31/18:00:11.474000,15,1731186306,2256619,RL_myo,-0.5146693433669608,-0.2554122141575632,-0.6409412361010106,-0.5089935163856816,159.5625,27.375,-220.75,-0.6416015625,0.50341796875,0.36865234375
1969/12/31/18:00:11.495000,16,1731186306,23344396,RL_myo,-0.5240046764911237,-0.2458293544032432,-0.661749674725513,-0.4765232371351845,143.625,9.625,-181.6875,-0.6328125,0.32958984375,0.33984375
1969/12/31/18:00:11.511000,17,1731186306,39038101,RL_myo,-0.5312881491400517,-0.2435808159928714,-0.6767896939476201,-0.447612554370263,137.75,-14.75,-129.5625,-0.61181640625,0.26708984375,0.25634765625
1969/12/31/18:00:11.534000,18,1731186306,62270190,RL_myo,-0.5365249993436407,-0.2492512907882412,-0.6860513613493192,-0.4234952759009809,130.3125,-37.9375,-72.1875,-0.55029296875,0.27734375,0.20849609375
1969/12/31/18:00:11.555000,19,1731186306,83231935,RL_myo,-0.5394724248417281,-0.2623206790326674,-0.6904075200599196,-0.4043449275457007,124.9375,-55.0625,-16.5625,-0.44677734375,0.25,0.1748046875
1969/12/31/18:00:11.571000,20,1731186306,98914846,RL_myo,-0.5396433719095547,-0.281417732173146,-0.6899037181707314,-0.3919463621808596,108.375,-63.8125,40.625,-0.34375,0.208984375,0.09423828125
1969/12/31/18:00:11.594000,21,1731186306,122003457,RL_myo,-0.5368888905806999,-0.3058258759463325,-0.6857432732255023,-0.3846778080402582,99.875,-66.625,96.875,-0.3115234375,0.2470703125,-0.02197265625
1969/12/31/18:00:11.615000,22,1731186306,143304899,RL_myo,-0.5325485809659306,-0.3342007826460504,-0.6765795975920589,-0.38333000653759,80.0,-76.1875,133.625,-0.28955078125,0.46533203125,-0.09814453125
1969/12/31/18:00:11.631000,23,1731186306,159056765,RL_myo,-0.5319985442828322,-0.3608093832511304,-0.6641285027974969,-0.381742674600105,63.375,-96.75,119.75,-0.13818359375,0.76123046875,0.03955078125
1969/12/31/18:00:11.654000,24,1731186306,182289975,RL_myo,-0.5338254478945291,-0.3828993780828027,-0.6546029214721298,-0.3740500937630695,74.3125,-100.25,70.375,0.0400390625,0.77685546875,0.0068359375
1969/12/31/18:00:11.675000,25,1731186306,203364907,RL_myo,-0.5299823718951535,-0.4065191823115635,-0.6463050804202759,-0.3689858844401311,78.1875,-78.125,77.0,0.12548828125,0.53857421875,-0.1611328125
1969/12/31/18:00:11.691000,26,1731186306,219134596,RL_myo,-0.5203510565627955,-0.4317339167399971,-0.638141056465,-0.3682615851864776,83.0625,-46.125,124.3125,0.173828125,0.56982421875,-0.20361328125
1969/12/31/18:00:11.714000,27,1731186306,242297863,RL_myo,-0.5088786753162035,-0.4555373509906623,-0.6288661394169057,-0.3715583323728768,69.125,-28.5625,137.25,0.1650390625,0.78271484375,-0.08984375
1969/12/31/18:00:11.735000,28,1731186306,263339505,RL_myo,-0.500146519325703,-0.4732319842405736,-0.6199497673350203,-0.3762542149655837,38.75,-21.1875,113.75,0.111328125,0.8115234375,-0.181640625
1969/12/31/18:00:11.751000,29,1731186306,279051772,RL_myo,-0.4889315033345277,-0.4905793813260434,-0.6139261006169036,-0.3786457429393846,54.625,-10.625,104.375,0.10595703125,0.7587890625,-0.43310546875
1969/12/31/18:00:11.774000,30,1731186306,302282847,RL_myo,-0.4739064179875087,-0.5094265126776221,-0.6098226566041451,-0.379491320933204,69.6875,-5.0,94.3125,0.1123046875,0.81787109375,-0.431640625
1969/12/31/18:00:11.795000,31,1731186306,323218251,RL_myo,-0.4638944473604984,-0.5220567165796216,-0.6056077622889391,-0.3814419544800835,43.0625,-4.75,63.5625,0.12939453125,0.9580078125,-0.34912109375
1969/12/31/18:00:11.811000,32,1731186306,339089364,RL_myo,-0.4571280511629881,-0.5290234909854181,-0.6017123439807611,-0.3861480880785348,1.5625,4.5,45.625,0.109375,1.02783203125,-0.49267578125
1969/12/31/18:00:11.834000,33,1731186306,362213789,RL_myo,-0.4493726928991426,-0.535914928201463,-0.5994484027781312,-0.389256965273765,10.125,9.5,44.125,0.041015625,1.02587890625,-0.5517578125
1969/12/31/18:00:11.855000,34,1731186306,383357720,RL_myo,-0.4423577204720046,-0.5419004139170709,-0.5967679071157922,-0.3931051431512393,8.125,11.75,45.4375,0.03076171875,0.95654296875,-0.44873046875
1969/12/31/18:00:11.871000,35,1731186306,399156406,RL_myo,-0.4343537744526655,-0.5469549707242922,-0.595169033084501,-0.3974303469489613,8.9375,21.6875,43.25,0.0419921875,0.904296875,-0.447265625
1969/12/31/18:00:11.925000,36,1731186306,453035334,RL_myo,-0.4252624156737346,-0.5523284818954216,-0.5946838373026506,-0.4005449532242709,24.625,25.0,42.6875,0.0244140625,0.865234375,-0.37109375
1969/12/31/18:00:11.926000,37,1731186306,453670356,RL_myo,-0.4137984950605075,-0.5595434517278367,-0.5934163373854446,-0.4043995321933514,28.0,28.875,57.75,0.0703125,0.67333984375,-0.38427734375
1969/12/31/18:00:11.932000,38,1731186306,460347701,RL_myo,-0.4033580486131104,-0.5685096418264675,-0.5914575350445836,-0.4053110608018863,27.5625,8.8125,53.125,0.12939453125,1.4140625,-0.81298828125
1969/12/31/18:00:11.954000,39,1731186306,482286920,RL_myo,-0.405197538781967,-0.5622962682329059,-0.6045920800081587,-0.3925637248750733,59.1875,-3.9375,-101.0,0.09033203125,2.01513671875,-0.4169921875
1969/12/31/18:00:11.975000,40,1731186306,503048148,RL_myo,-0.4029266391097469,-0.5597152692025885,-0.6132394531618809,-0.3851055881221604,40.5625,12.5625,-40.75,-0.20751953125,1.18017578125,-0.5751953125
1969/12/31/18:00:12.015000,41,1731186306,543017260,RL_myo,-0.4041360325284491,-0.5609203073042851,-0.6078518399250005,-0.3905875276626509,-24.5625,9.125,57.625,-0.46923828125,1.28759765625,-0.39697265625
1969/12/31/18:00:12.016000,42,1731186306,543807291,RL_myo,-0.407922145686828,-0.5612896430104365,-0.6038273054197302,-0.3923595862687937,-23.625,-13.4375,20.3125,-0.21337890625,0.9814453125,-0.33251953125
1969/12/31/18:00:12.035000,43,1731186306,563221502,RL_myo,-0.4134839103238422,-0.5581880212283189,-0.5995058968429671,-0.39755486226561,-43.125,-5.5,1.3125,-0.03125,0.86572265625,-0.1689453125
1969/12/31/18:00:12.051000,44,1731186306,579074100,RL_myo,-0.4142904967020986,-0.5568630659855551,-0.5992808466585013,-0.398910236659534,-8.0625,6.25,3.625,-0.13525390625,0.7802734375,-0.23828125
1969/12/31/18:00:12.074000,45,1731186306,602475600,RL_myo,-0.4134232036381633,-0.5583105206498254,-0.600482861026851,-0.3959683710074407,17.0625,-3.375,6.25,-0.1982421875,0.78466796875,-0.31787109375
1969/12/31/18:00:12.096000,46,1731186306,623951284,RL_myo,-0.4103184193819272,-0.5623492363803476,-0.6026303842000816,-0.3901778454720601,40.25,-9.125,8.5625,-0.17333984375,0.84326171875,-0.3828125
1969/12/31/18:00:12.118000,47,1731186306,645760475,RL_myo,-0.4061686369065667,-0.5682088669571954,-0.6045229674770162,-0.3830374703569665,52.8125,-14.8125,13.125,-0.16162109375,0.97705078125,-0.45166015625
1969/12/31/18:00:12.133000,48,1731186306,661478232,RL_myo,-0.4043994711857437,-0.5732756161858875,-0.60495133691414,-0.3766298123584704,36.8125,-24.375,6.5,-0.09765625,1.18310546875,-0.55419921875
1969/12/31/18:00:12.158000,49,1731186306,686275603,RL_myo,-0.4041571360737173,-0.577184239783924,-0.6050150543489519,-0.3707723650932999,23.875,-27.625,-0.3125,-0.0625,1.08544921875,-0.57373046875
1969/12/31/18:00:12.171000,50,1731186306,699101858,RL_myo,-0.4050798549016501,-0.5807955249727442,-0.6005093705555727,-0.3714503536132956,-7.625,-18.875,27.5625,-0.07568359375,1.10302734375,-0.4921875
1969/12/31/18:00:12.194000,51,1731186306,721669897,RL_myo,-0.4051410031777455,-0.5854342426153863,-0.593917912311335,-0.3746852393052394,-12.1875,-14.1875,45.8125,-0.0556640625,1.037109375,-0.40380859375
1969/12/31/18:00:12.217000,52,1731186306,744998119,RL_myo,-0.4058179532465028,-0.5884329804857172,-0.5872733262352008,-0.3796952153927649,-18.875,-7.6875,41.375,-0.01416015625,0.99560546875,-0.291015625
1969/12/31/18:00:12.231000,53,1731186306,759190150,RL_myo,-0.4055538798761029,-0.5909063453665053,-0.5826671017572843,-0.3832163749799925,-10.875,-2.25,35.1875,-0.05615234375,0.95849609375,-0.32470703125
1969/12/31/18:00:12.253000,54,1731186306,781546445,RL_myo,-0.4036524535293491,-0.5946763693967307,-0.5802732882003403,-0.3830243118158746,13.5625,-4.3125,33.5,-0.15478515625,0.8779296875,-0.31591796875
1969/12/31/18:00:12.277000,55,1731186306,804885247,RL_myo,-0.4021315862734441,-0.5987726503154895,-0.5789986885682448,-0.3801605176653944,20.3125,-12.0,25.875,-0.18701171875,1.0234375,-0.44482421875
1969/12/31/18:00:12.291000,56,1731186306,819073946,RL_myo,-0.4013427684753179,-0.6024413728132395,-0.5795545817277401,-0.3743058392729813,34.1875,-22.1875,3.25,-0.0888671875,1.09423828125,-0.43505859375
1969/12/31/18:00:12.322000,57,1731186306,849815233,RL_myo,-0.4029841472082242,-0.6031640658577736,-0.5806438250096994,-0.3696615144086345,21.4375,-19.9375,-14.875,-0.037109375,1.248046875,-0.4296875
1969/12/31/18:00:12.337000,58,1731186306,864714631,RL_myo,-0.4068927612045867,-0.6009709043920152,-0.5829667999139361,-0.3652697128857734,10.0,-16.9375,-32.0,-0.08203125,1.3193359375,-0.44091796875
1969/12/31/18:00:12.351000,59,1731186306,879130533,RL_myo,-0.4117724326540831,-0.5962064465092246,-0.5864415748292701,-0.3620326175343147,-1.0625,-10.8125,-49.3125,-0.01220703125,1.2333984375,-0.40087890625
1969/12/31/18:00:12.374000,60,1731186306,901620072,RL_myo,-0.4173847581139757,-0.5883910590695773,-0.5918087438852496,-0.359650296763512,-6.0625,2.3125,-62.625,-0.07958984375,1.19873046875,-0.322265625
1969/12/31/18:00:12.397000,61,1731186306,925014075,RL_myo,-0.425390783479815,-0.5774817207010057,-0.5994531241519,-0.3552653874657106,-2.3125,3.4375,-83.0625,-0.23291015625,1.201171875,-0.19677734375
1969/12/31/18:00:12.411000,62,1731186306,939222365,RL_myo,-0.4343603179739794,-0.5650895298750984,-0.6084218083297177,-0.349038451383053,-5.5,1.0625,-97.625,-0.29638671875,1.14599609375,-0.24658203125
1969/12/31/18:00:12.433000,63,1731186306,961602824,RL_myo,-0.4427152573023868,-0.5530584038701724,-0.616530125347217,-0.3435406924945045,-9.875,0.6875,-95.0625,-0.23046875,0.974609375,-0.21484375
1969/12/31/18:00:12.472000,64,1731186306,999741540,RL_myo,-0.4496910054521649,-0.5413625432085644,-0.6232077709924071,-0.341052298923276,-17.0625,8.0,-87.375,-0.11083984375,0.88037109375,-0.1533203125
1969/12/31/18:00:12.472000,65,1731186307,568637,RL_myo,-0.4555395458075149,-0.5287774149084016,-0.6308221791889703,-0.3390303023795211,-23.1875,18.6875,-84.3125,-0.19677734375,0.74560546875,-0.2080078125
1969/12/31/18:00:12.502000,66,1731186307,29837864,RL_myo,-0.4609650049141935,-0.5169301723319502,-0.6382592375734988,-0.3360351273742287,-17.4375,18.125,-75.0,-0.3173828125,0.68017578125,-0.1865234375
1969/12/31/18:00:12.524000,67,1731186307,52413938,RL_myo,-0.4653103631855274,-0.5066902721886476,-0.644562269884884,-0.3336026292198443,-16.1875,16.875,-64.0625,-0.294921875,0.64501953125,-0.2080078125
1969/12/31/18:00:12.555000,68,1731186307,83032990,RL_myo,-0.46842083365128,-0.4980213684162143,-0.6501131882805777,-0.3315259893672642,-15.5,16.125,-52.125,-0.31640625,0.6376953125,-0.26708984375
1969/12/31/18:00:12.556000,69,1731186307,83825455,RL_myo,-0.4707892037848728,-0.4912954485958292,-0.6534534618777073,-0.3316396854248118,-20.625,14.9375,-32.8125,-0.29736328125,0.61181640625,-0.2568359375
1969/12/31/18:00:12.576000,70,1731186307,104015308,RL_myo,-0.4707291911063135,-0.486963336683168,-0.6558960996784067,-0.3332882293052739,-17.3125,19.125,-16.25,-0.2197265625,0.55810546875,-0.27783203125
1969/12/31/18:00:12.607000,71,1731186307,134682374,RL_myo,-0.4675603348778087,-0.4843439260658255,-0.659747711790773,-0.3339629490211942,-2.375,27.4375,-9.8125,-0.21875,0.52490234375,-0.337890625
1969/12/31/18:00:12.628000,72,1731186307,156686509,RL_myo,-0.4631779718180328,-0.4841122245962098,-0.6634876441736506,-0.3329949946289612,15.3125,24.75,1.5625,-0.30517578125,0.583984375,-0.34326171875
1969/12/31/18:00:12.635000,73,1731186307,163441276,RL_myo,-0.4570631751408192,-0.4870905595939215,-0.6665835223511853,-0.3309115416762614,25.0,17.25,13.625,-0.2763671875,0.62841796875,-0.47705078125
1969/12/31/18:00:12.659000,74,1731186307,187283421,RL_myo,-0.448895408763879,-0.4922896488224947,-0.6683689492009843,-0.3307971605030896,31.25,19.5625,22.375,-0.0673828125,0.6005859375,-0.40673828125
1969/12/31/18:00:12.687000,75,1731186307,215670673,RL_myo,-0.4407114422977776,-0.4964946105930509,-0.6700693705840327,-0.3320746375214247,23.0625,26.6875,25.9375,-0.1396484375,0.7080078125,-0.46142578125
1969/12/31/18:00:12.713000,76,1731186307,240917835,RL_myo,-0.4358866236035411,-0.5000917101382548,-0.6704304900986977,-0.3323162511231142,11.3125,12.875,28.6875,-0.3505859375,0.87890625,-0.5732421875
1969/12/31/18:00:12.714000,77,1731186307,241955703,RL_myo,-0.4320971160973358,-0.5047236087747129,-0.6692622846219469,-0.3326171303291638,2.5625,-1.1875,28.6875,-0.2080078125,0.77978515625,-0.62646484375
1969/12/31/18:00:12.742000,78,1731186307,270023478,RL_myo,-0.4269153803507154,-0.5106506057747585,-0.6660368185514449,-0.3367108153530946,-3.125,4.1875,40.4375,0.0009765625,0.7353515625,-0.51708984375
1969/12/31/18:00:12.764000,79,1731186307,292332354,RL_myo,-0.4222105240442622,-0.5155875263263844,-0.6624884704395008,-0.3420771880988854,-5.25,10.25,42.4375,-0.06005859375,0.86865234375,-0.4619140625
1969/12/31/18:00:12.801000,80,1731186307,328963231,RL_myo,-0.4180044769454641,-0.5199270169511475,-0.6609707235099105,-0.3436071258874235,2.3125,5.75,32.8125,-0.18212890625,0.82177734375,-0.56982421875
1969/12/31/18:00:12.802000,81,1731186307,329891220,RL_myo,-0.4135519823102779,-0.5251182490846564,-0.6589001182145456,-0.345074219005654,6.9375,1.0,31.5625,-0.0810546875,0.9208984375,-0.57958984375
1969/12/31/18:00:12.816000,82,1731186307,344491710,RL_myo,-0.4084826074096685,-0.529812866416156,-0.6566969753067433,-0.3481226344934632,4.5,9.4375,34.6875,-0.06396484375,0.91748046875,-0.533203125
1969/12/31/18:00:12.847000,83,1731186307,374814754,RL_myo,-0.4055041632795418,-0.5331244530774832,-0.6540310977880148,-0.3515508700316317,-3.625,9.4375,37.1875,-0.21826171875,1.00146484375,-0.509765625
1969/12/31/18:00:12.869000,84,1731186307,396654983,RL_myo,-0.403593948241976,-0.5359688573205857,-0.6521707138838282,-0.3528776967692583,-2.125,0.625,24.3125,-0.18701171875,1.0341796875,-0.58544921875
1969/12/31/18:00:12.875000,85,1731186307,403446049,RL_myo,-0.4004953523821216,-0.5397715477701133,-0.650240396872771,-0.3541716747749849,3.75,-0.375,23.8125,-0.05029296875,0.89794921875,-0.52490234375
1969/12/31/18:00:12.899000,86,1731186307,427284554,RL_myo,-0.395485542010983,-0.5439146837039939,-0.6482178922374461,-0.3571576221988075,6.875,10.125,29.5625,0.01806640625,0.9052734375,-0.48681640625
1969/12/31/18:00:12.928000,87,1731186307,455862840,RL_myo,-0.3906045896283004,-0.5462361058083264,-0.6479763950130728,-0.3594172544251658,9.4375,18.375,21.9375,-0.09814453125,1.076171875,-0.55615234375
1969/12/31/18:00:12.952000,88,1731186307,479857968,RL_myo,-0.3862039986108737,-0.5470206130766848,-0.6499188339455111,-0.3594724323353423,12.5,18.5625,6.4375,-0.12890625,1.00244140625,-0.6103515625
1969/12/31/18:00:12.980000,89,1731186307,508154665,RL_myo,-0.3807746921175561,-0.5481837288988443,-0.6516318941720062,-0.3603902158926381,12.1875,21.625,8.25,-0.0439453125,0.92919921875,-0.59130859375
1969/12/31/18:00:12.988000,90,1731186307,515914565,RL_myo,-0.3773066936872826,-0.548077338937528,-0.6518336280459687,-0.3638183761031853,2.9375,23.1875,10.1875,-0.056640625,1.03955078125,-0.44921875
1969/12/31/18:00:13.004000,91,1731186307,532235646,RL_myo,-0.3776596236742031,-0.5456168448040362,-0.6517496963828079,-0.3672843592875491,-9.125,18.5,3.6875,-0.20263671875,1.08349609375,-0.37451171875
1969/12/31/18:00:13.034000,92,1731186307,562277610,RL_myo,-0.3785050892764273,-0.5435899435964427,-0.651612195776268,-0.3696558087306224,-12.5,11.6875,2.1875,-0.193359375,0.9404296875,-0.40673828125
1969/12/31/18:00:13.057000,93,1731186307,584828717,RL_myo,-0.3779645075011117,-0.5428700620413998,-0.6504675796781606,-0.373265126413176,-11.8125,11.75,7.6875,-0.0546875,0.88037109375,-0.36474609375
1969/12/31/18:00:13.058000,94,1731186307,585617550,RL_myo,-0.3765045552517724,-0.5421445881506718,-0.6504758550613374,-0.3757721748557566,1.1875,17.25,9.8125,-0.14892578125,0.9248046875,-0.3271484375
1969/12/31/18:00:13.094000,95,1731186307,622268555,RL_myo,-0.3751628269795217,-0.5414136063340388,-0.6529798415249557,-0.3738201261183618,18.125,11.1875,-1.4375,-0.2548828125,0.95361328125,-0.421875
1969/12/31/18:00:13.116000,96,1731186307,643932742,RL_myo,-0.3717426017522509,-0.5419593340272514,-0.6566984723123,-0.3699116580562129,29.6875,8.625,-7.25,-0.13134765625,0.8330078125,-0.49853515625
1969/12/31/18:00:13.117000,97,1731186307,644808228,RL_myo,-0.367656454951008,-0.544466008402713,-0.6579854317441597,-0.3680226466392062,23.375,6.4375,9.5625,-0.09228515625,1.02392578125,-0.6044921875
1969/12/31/18:00:13.138000,98,1731186307,666596643,RL_myo,-0.367294792504593,-0.5451440821952517,-0.6585428400007575,-0.3663793019948607,8.6875,-2.6875,1.0625,-0.14794921875,1.06103515625,-0.56787109375
1969/12/31/18:00:13.169000,99,1731186307,697263453,RL_myo,-0.3667479319720207,-0.5458800971139547,-0.6592185743434508,-0.364611773273565,1.8125,-4.0,-1.125,-0.0908203125,0.802734375,-0.58154296875
1969/12/31/18:00:13.191000,100,1731186307,719106779,RL_myo,-0.3653404893041979,-0.5467290516516881,-0.6584185096247388,-0.366194944173937,-2.125,1.9375,3.0,0.06591796875,0.8330078125,-0.44970703125
1969/12/31/18:00:13.198000,101,1731186307,725850299,RL_myo,-0.3627115154236738,-0.5470273115837774,-0.6587763919709129,-0.3677161165114647,3.3125,12.0,3.6875,0.00390625,0.9013671875,-0.48046875
1969/12/31/18:00:13.221000,102,1731186307,749672393,RL_myo,-0.3608138914239357,-0.5475070060832421,-0.6598646471711085,-0.3669169680718372,10.375,7.75,4.5,-0.1435546875,0.9775390625,-0.552734375
1969/12/31/18:00:13.250000,103,1731186307,778211277,RL_myo,-0.3594779643581696,-0.5486158610552779,-0.6615248990964687,-0.3635671024926343,21.1875,-1.875,-0.625,-0.15478515625,0.9150390625,-0.52294921875
1969/12/31/18:00:13.275000,104,1731186307,803014848,RL_myo,-0.3580607818713079,-0.5503651152063159,-0.6613169647788467,-0.3626990330085535,19.125,-1.8125,6.625,-0.05419921875,0.95654296875,-0.39111328125
1969/12/31/18:00:13.276000,105,1731186307,803874700,RL_myo,-0.3563128981511654,-0.5513755947066853,-0.661540853556095,-0.36247726997598,13.625,4.5,6.0,-0.07177734375,0.93603515625,-0.44140625
1969/12/31/18:00:13.304000,106,1731186307,832488015,RL_myo,-0.354102877925106,-0.5529424463980456,-0.6624934057009696,-0.3605111513105138,20.4375,2.9375,6.9375,-0.1259765625,0.890625,-0.48876953125
1969/12/31/18:00:13.327000,107,1731186307,854998746,RL_myo,-0.3521575152583809,-0.5540530196734111,-0.6642166791259896,-0.3575283751098085,27.75,1.25,0.125,-0.1357421875,0.93505859375,-0.46435546875
1969/12/31/18:00:13.357000,108,1731186307,885547549,RL_myo,-0.3512391271754101,-0.5544756681822071,-0.6659200897673154,-0.3545958868617086,22.5,0.875,-1.75,-0.1787109375,0.91455078125,-0.4638671875
1969/12/31/18:00:13.358000,109,1731186307,886208693,RL_myo,-0.3498351209129601,-0.5554517507726535,-0.6671402140089964,-0.3521543349036601,19.0,-1.0,-0.3125,-0.10498046875,0.86376953125,-0.4970703125
1969/12/31/18:00:13.378000,110,1731186307,906451766,RL_myo,-0.3486020898851228,-0.5566526018631311,-0.6671775291708968,-0.3514094596566066,11.0625,-1.0625,3.375,-0.05419921875,0.96923828125,-0.544921875
1969/12/31/18:00:13.409000,111,1731186307,937251167,RL_myo,-0.3483627249333438,-0.5563550456363634,-0.6682851853574132,-0.3500105514177867,6.375,-2.0,-8.9375,-0.05615234375,0.9794921875,-0.60986328125
1969/12/31/18:00:13.431000,112,1731186307,959070388,RL_myo,-0.3470302140380126,-0.5565544357742943,-0.670868116902187,-0.3460536956727984,20.6875,-1.25,-9.5625,-0.13232421875,0.845703125,-0.591796875
1969/12/31/18:00:13.438000,113,1731186307,965749718,RL_myo,-0.3436066939282971,-0.5583151040952153,-0.6736033891450471,-0.341287501322742,32.375,-1.125,-5.375,-0.06787109375,0.79833984375,-0.59619140625
1969/12/31/18:00:13.462000,114,1731186307,989856220,RL_myo,-0.3401846307242506,-0.5601389560077453,-0.6751816594370982,-0.3385978348148802,28.625,1.0625,-1.75,0.00439453125,0.880859375,-0.552734375
1969/12/31/18:00:13.491000,115,1731186308,19014921,RL_myo,-0.3392701711273596,-0.5605067910835889,-0.675427771877404,-0.3384157400433907,2.0625,-0.5,-2.3125,-0.015625,0.93017578125,-0.646484375
1969/12/31/18:00:13.493000,116,1731186308,20745399,RL_myo,-0.3444017048344452,-0.5571581009097378,-0.6742778725874449,-0.3410449630719263,-43.1875,-10.1875,-17.625,-0.0478515625,1.060546875,-0.80126953125
1969/12/31/18:00:13.514000,117,1731186308,42128629,RL_myo,-0.3566702399734668,-0.5489816578647048,-0.6711064268905274,-0.3478816508981452,-94.1875,-22.9375,-42.4375,0.02978515625,1.27392578125,-0.845703125
1969/12/31/18:00:13.544000,118,1731186308,72316239,RL_myo,-0.3745564170249901,-0.538184534027434,-0.6650100570155274,-0.3575283511377533,-132.625,-31.375,-41.1875,0.04736328125,1.01953125,-0.86279296875
1969/12/31/18:00:13.567000,119,1731186308,94904288,RL_myo,-0.3955950466641442,-0.524917154637196,-0.6572297219262834,-0.3688029723837432,-155.125,-37.3125,-49.1875,0.08447265625,1.13427734375,-0.70703125
1969/12/31/18:00:13.572000,120,1731186308,100030311,RL_myo,-0.4187283386262538,-0.5033772536057924,-0.6532674736416588,-0.3801572396593696,-174.6875,-19.75,-98.1875,0.1728515625,1.126953125,-0.751953125
1969/12/31/18:00:13.597000,121,1731186308,124731753,RL_myo,-0.4389980003953359,-0.4774477070892136,-0.6526074820279893,-0.3916987580338198,-170.6875,8.1875,-119.9375,0.3125,0.94677734375,-0.64111328125
1969/12/31/18:00:13.618000,122,1731186308,146563357,RL_myo,-0.4532224948414434,-0.449560584029366,-0.6542613984244914,-0.4054955905907015,-162.125,47.1875,-116.3125,0.43115234375,0.845703125,-0.5341796875
1969/12/31/18:00:13.650000,123,1731186308,177995154,RL_myo,-0.4623673396715385,-0.4181202011734042,-0.6613879171093536,-0.4170826820637928,-134.9375,83.4375,-138.25,0.43603515625,0.8583984375,-0.36865234375
1969/12/31/18:00:13.652000,124,1731186308,179624785,RL_myo,-0.4699919613803549,-0.3816205342827372,-0.6738931616104245,-0.4234871081701444,-110.8125,104.0625,-180.5,0.39501953125,0.82470703125,-0.24169921875
1969/12/31/18:00:13.678000,125,1731186308,206014261,RL_myo,-0.4755072559588073,-0.3418452240566396,-0.6894885727848346,-0.4261926798049482,-92.8125,121.25,-202.9375,0.30419921875,0.642578125,-0.1494140625
1969/12/31/18:00:13.702000,126,1731186308,229904817,RL_myo,-0.4771921797384937,-0.3028299777289175,-0.7064812217230853,-0.4259881589173406,-68.0,133.0,-197.8125,0.15380859375,0.46142578125,-0.14306640625
1969/12/31/18:00:13.710000,127,1731186308,238097567,RL_myo,-0.4762834460953135,-0.2664599597196487,-0.723945955610278,-0.4219661386856737,-39.5625,132.375,-189.375,0.005859375,0.3623046875,-0.099609375
1969/12/31/18:00:13.732000,128,1731186308,259931059,RL_myo,-0.4742215429799358,-0.2329605700842233,-0.7416654041560078,-0.4132502017396584,-8.5625,124.875,-186.4375,-0.08544921875,0.29345703125,-0.03271484375
1969/12/31/18:00:13.756000,129,1731186308,283682901,RL_myo,-0.4708502711048845,-0.2040249457295695,-0.7589752393338101,-0.4007872625205154,21.125,114.4375,-171.0,-0.2265625,0.20361328125,0.05126953125
1969/12/31/18:00:13.777000,130,1731186308,304662735,RL_myo,-0.4661658687367589,-0.180656058059807,-0.7747459462875645,-0.3870678108835461,39.625,102.5625,-142.8125,-0.38037109375,0.14306640625,0.0283203125
1969/12/31/18:00:13.792000,131,1731186308,319763854,RL_myo,-0.4626074677183956,-0.1621567337371738,-0.7867988751748756,-0.3750294048983564,35.75,78.8125,-115.875,-0.4599609375,0.2890625,-0.009765625
1969/12/31/18:00:13.814000,132,1731186308,342320496,RL_myo,-0.4633466663970696,-0.14647418326567,-0.792303269647887,-0.3689318491004065,4.625,48.9375,-85.0625,-0.505859375,0.3828125,-0.01708984375
1969/12/31/18:00:13.837000,133,1731186308,364627201,RL_myo,-0.465132149576172,-0.1334790724475906,-0.7934894471381462,-0.3690662785050665,-26.4375,35.25,-49.75,-0.591796875,0.34521484375,0.01171875
1969/12/31/18:00:13.852000,134,1731186308,379639749,RL_myo,-0.4690954211929408,-0.1243841358822812,-0.7886003040897721,-0.3776077765965033,-66.8125,11.1875,-4.0,-0.68798828125,0.3251953125,0.06982421875
1969/12/31/18:00:13.874000,135,1731186308,402296784,RL_myo,-0.4739123024039322,-0.1229791744164743,-0.7768133657433677,-0.3960356639148894,-112.8125,-33.25,45.0625,-0.697265625,0.453125,0.0927734375
1969/12/31/18:00:13.890000,136,1731186308,418049475,RL_myo,-0.4807517240140284,-0.1252383569476687,-0.7573502784423103,-0.423808552945717,-163.4375,-65.3125,87.375,-0.72509765625,0.5361328125,0.11669921875
1969/12/31/18:00:13.911000,137,1731186308,439035970,RL_myo,-0.4871707645298587,-0.1310392923384623,-0.7291692713402934,-0.4623910939712114,-222.3125,-88.375,145.5,-1.02587890625,0.4765625,0.1474609375
1969/12/31/18:00:13.933000,138,1731186308,460812632,RL_myo,-0.4970909076677037,-0.149401908160901,-0.6945846065274569,-0.4981284209188211,-192.125,-155.875,183.125,-0.83056640625,0.59375,0.38818359375
1969/12/31/18:00:13.947000,139,1731186308,475011197,RL_myo,-0.5117975291050693,-0.1686869032251862,-0.6471010256500178,-0.5393220563679343,-257.0,-213.875,198.25,-0.736328125,0.70361328125,0.13818359375
1969/12/31/18:00:13.969000,140,1731186308,497654667,RL_myo,-0.5255524551014147,-0.1893233905149911,-0.594946618549366,-0.5779184992864123,-256.375,-231.125,203.375,-0.7578125,0.92333984375,0.3349609375
1969/12/31/18:00:13.993000,141,1731186308,520881788,RL_myo,-0.5355537989547399,-0.216845885776204,-0.5451968189245232,-0.6073881945524298,-188.9375,-243.75,210.4375,-0.65869140625,0.689453125,0.56982421875
1969/12/31/18:00:14.007000,142,1731186308,535050397,RL_myo,-0.5453127157106028,-0.2399131824799529,-0.4887369028998889,-0.6373475870359067,-229.4375,-249.0625,206.3125,-0.59423828125,0.884765625,0.57275390625
1969/12/31/18:00:14.030000,143,1731186308,557635875,RL_myo,-0.5552147528689461,-0.2591449753414911,-0.4346140766384263,-0.6600689845309059,-217.0,-239.625,169.1875,-0.56787109375,1.1416015625,0.556640625
1969/12/31/18:00:14.068000,144,1731186308,595756962,RL_myo,-0.5614284063039346,-0.2747026042802489,-0.3941411727264713,-0.6737873253174735,-148.0,-188.125,127.4375,-0.642578125,0.99169921875,0.58349609375
1969/12/31/18:00:14.084000,145,1731186308,612160806,RL_myo,-0.5630759453305708,-0.2936832266345878,-0.3575831306841334,-0.6847115793045387,-106.1875,-183.25,137.5625,-0.595703125,0.97509765625,0.771484375
1969/12/31/18:00:14.098000,146,1731186308,626433091,RL_myo,-0.5564764974758167,-0.3174808883383635,-0.3210816904167878,-0.6974570534276852,-87.125,-184.0625,188.375,-0.662109375,1.22021484375,0.5224609375
1969/12/31/18:00:14.122000,147,1731186308,649850318,RL_myo,-0.547271802341482,-0.341289608419044,-0.285933801044925,-0.7087008106155112,-78.0625,-175.8125,190.5,-0.47802734375,1.23095703125,0.23828125
1969/12/31/18:00:14.137000,148,1731186308,664658029,RL_myo,-0.5347700549454513,-0.364427299484055,-0.2561549783846221,-0.7180517800083582,-48.75,-154.1875,186.5,-0.37353515625,1.2568359375,0.31494140625
1969/12/31/18:00:14.158000,149,1731186308,685777651,RL_myo,-0.5211533261910918,-0.3887746443186854,-0.2308845336668111,-0.7238410175227016,-20.9375,-148.3125,171.0625,-0.1123046875,1.392578125,0.224609375
1969/12/31/18:00:14.172000,150,1731186308,700110397,RL_myo,-0.5103429988815797,-0.3967639124287431,-0.1922483193586434,-0.7383556087621803,-140.0,-101.8125,189.6875,0.53515625,1.66845703125,0.78564453125
1969/12/31/18:00:14.190000,151,1731186308,717980196,RL_myo,-0.5024586702307703,-0.3949240926835072,-0.151415032289875,-0.7540846993041902,-184.25,-72.9375,180.5625,-0.23779296875,0.96875,0.39111328125
1969/12/31/18:00:14.209000,152,1731186308,737436493,RL_myo,-0.4913739214940308,-0.3936606376396098,-0.1087601947711294,-0.7692556088076965,-180.5625,-76.0625,192.875,0.201171875,0.84912109375,0.56689453125
1969/12/31/18:00:14.232000,153,1731186308,759955493,RL_myo,-0.4772095686868957,-0.3964031396113809,-0.0792195958761466,-0.7802947097662056,-90.4375,-61.4375,156.375,0.83984375,0.1865234375,1.0439453125
1969/12/31/18:00:14.247000,154,1731186308,775175025,RL_myo,-0.4519441146701113,-0.4107473182619648,-0.0811729469967924,-0.787682747323762,106.0,-32.1875,132.75,0.814453125,0.46728515625,1.0791015625
1969/12/31/18:00:14.270000,155,1731186308,797641745,RL_myo,-0.4253230686078976,-0.4321585089413866,-0.1019212978297014,-0.7886389284762884,215.8125,-32.3125,83.0,0.4228515625,0.30908203125,0.83984375
1969/12/31/18:00:14.292000,156,1731186308,820235646,RL_myo,-0.3959705037164817,-0.4527295309138195,-0.1377474455746145,-0.7869364480456712,288.875,5.1875,50.6875,0.59228515625,0.48486328125,0.740234375
1969/12/31/18:00:14.307000,157,1731186308,835061411,RL_myo,-0.3726062127928652,-0.4731885287113979,-0.1799251622134916,-0.7777429925666636,305.3125,-1.875,-8.75,0.4716796875,0.47607421875,0.3857421875
1969/12/31/18:00:14.329000,158,1731186308,857615480,RL_myo,-0.3483007952754506,-0.4925157557162933,-0.2179397476657848,-0.7672138246728034,288.3125,-6.875,-0.5,0.837890625,0.638671875,0.44287109375
1969/12/31/18:00:14.352000,159,1731186308,880178454,RL_myo,-0.3257817272740125,-0.5035030442133014,-0.2438785654153154,-0.7621510322588737,205.3125,17.875,28.9375,0.74365234375,0.81591796875,0.39697265625
1969/12/31/18:00:14.375000,160,1731186308,903428973,RL_myo,-0.3101641686968152,-0.5065648563918863,-0.254747194045751,-0.7630819758394884,94.25,28.3125,53.125,0.47509765625,0.78076171875,0.33935546875
1969/12/31/18:00:14.389000,161,1731186308,917643131,RL_myo,-0.3024668236776051,-0.5100313247525717,-0.2578535774894837,-0.7628193763410787,40.625,0.875,32.375,0.513671875,0.65234375,0.28466796875
1969/12/31/18:00:14.412000,162,1731186308,940204688,RL_myo,-0.2958242432820626,-0.5108415342007147,-0.2496226851709585,-0.767605015011038,-14.6875,6.9375,46.8125,0.78515625,0.4931640625,0.4169921875
1969/12/31/18:00:14.427000,163,1731186308,955131963,RL_myo,-0.2906971614137404,-0.5108409072082737,-0.2421764300839223,-0.7719373708925025,-15.6875,9.1875,33.0,0.8115234375,0.43603515625,0.4072265625
1969/12/31/18:00:14.450000,164,1731186308,977721400,RL_myo,-0.2864805221214782,-0.5104040491056503,-0.2399747364681833,-0.7744861154072344,3.75,12.9375,16.25,0.75634765625,0.4951171875,0.39404296875
1969/12/31/18:00:14.483000,165,1731186309,10547794,RL_myo,-0.2843431358876673,-0.5089369843673015,-0.2414994180526936,-0.7757642413110409,13.375,14.5,-1.1875,0.65673828125,0.5341796875,0.3896484375
1969/12/31/18:00:14.487000,166,1731186309,15120881,RL_myo,-0.2840522681523265,-0.5076198354582939,-0.2429153474959732,-0.7762915338696693,7.9375,8.8125,-7.8125,0.62841796875,0.55712890625,0.3837890625
1969/12/31/18:00:14.511000,167,1731186309,39053868,RL_myo,-0.284280310683618,-0.506309458443816,-0.2425964437456808,-0.7771630477125787,-2.9375,6.6875,-3.8125,0.64013671875,0.5849609375,0.3828125
1969/12/31/18:00:14.532000,168,1731186309,60137251,RL_myo,-0.2855078017226988,-0.5041855386984213,-0.2402220409535148,-0.778829640398324,-16.875,7.0,-0.5,0.6142578125,0.59130859375,0.3984375
1969/12/31/18:00:14.547000,169,1731186309,75286077,RL_myo,-0.2875216212439732,-0.5020490036834905,-0.2369261162532591,-0.780476861063029,-24.125,4.5625,-0.75,0.61865234375,0.60400390625,0.39794921875
1969/12/31/18:00:14.569000,170,1731186309,97581025,RL_myo,-0.2899633553899295,-0.500218829883364,-0.2341800451759965,-0.7815766636757393,-22.5625,2.375,-4.5,0.61767578125,0.60986328125,0.39453125
1969/12/31/18:00:14.592000,171,1731186309,120179683,RL_myo,-0.2922817960839849,-0.498752732845756,-0.2325925923733695,-0.7821238707070929,-16.125,1.8125,-6.9375,0.611328125,0.6181640625,0.3876953125
1969/12/31/18:00:14.607000,172,1731186309,134985198,RL_myo,-0.2941833105674334,-0.4975482049264973,-0.2318677171879003,-0.7823933315692798,-10.625,2.125,-7.8125,0.61083984375,0.62158203125,0.38330078125
1969/12/31/18:00:14.630000,173,1731186309,157718903,RL_myo,-0.2955825082724256,-0.4966249989289133,-0.2321082549989747,-0.782381204531122,-5.0625,2.4375,-7.625,0.6005859375,0.630859375,0.37744140625
1969/12/31/18:00:14.652000,174,1731186309,180097883,RL_myo,-0.2969792588699982,-0.4956978094003545,-0.2321638102633524,-0.7824237769653467,-5.5625,2.125,-6.75,0.587890625,0.6298828125,0.37890625
1969/12/31/18:00:14.667000,175,1731186309,195042939,RL_myo,-0.2985132311855812,-0.4947959037459635,-0.2320481097868697,-0.7824452307910759,-7.1875,1.625,-6.3125,0.5830078125,0.63525390625,0.373046875
1969/12/31/18:00:14.690000,176,1731186309,217637634,RL_myo,-0.3001542092219789,-0.4938690242017595,-0.2315545078869841,-0.7825492620260702,-8.875,1.125,-6.0625,0.59423828125,0.6376953125,0.3818359375
1969/12/31/18:00:14.706000,177,1731186309,234040923,RL_myo,-0.3019271472069338,-0.4927753762985211,-0.2305192712756396,-0.78286224322283,-10.75,0.9375,-6.5625,0.6025390625,0.6142578125,0.40771484375
1969/12/31/18:00:14.744000,178,1731186309,272262456,RL_myo,-0.3038792209865654,-0.4914921403102654,-0.2296640908962534,-0.7831649254267138,-10.5,1.25,-7.6875,0.59228515625,0.611328125,0.4189453125
1969/12/31/18:00:14.750000,179,1731186309,277676864,RL_myo,-0.3057144391106075,-0.4902172838763026,-0.228873856391451,-0.7834809851992152,-9.375,1.25,-7.6875,0.5859375,0.60009765625,0.41845703125
1969/12/31/18:00:14.766000,180,1731186309,293955550,RL_myo,-0.307242303157932,-0.4892440012145377,-0.2282650404868227,-0.783669283382568,-7.8125,1.0,-7.0,0.5888671875,0.60546875,0.412109375
1969/12/31/18:00:14.787000,181,1731186309,315183754,RL_myo,-0.3086985973644172,-0.4884371045289503,-0.2278925588293265,-0.783708716638292,-6.75,0.9375,-6.8125,0.58984375,0.61083984375,0.39892578125
1969/12/31/18:00:14.810000,182,1731186309,337745012,RL_myo,-0.3100386605216798,-0.4877005779977841,-0.2274634031032087,-0.7837630863030338,-7.625,1.875,-6.25,0.59423828125,0.61962890625,0.3828125
1969/12/31/18:00:14.826000,183,1731186309,353969654,RL_myo,-0.3112004586728399,-0.486544431563028,-0.2272819196112288,-0.784073797326922,-6.5625,4.0625,-5.8125,0.580078125,0.61474609375,0.3935546875
1969/12/31/18:00:14.847000,184,1731186309,375188849,RL_myo,-0.3120588209573039,-0.4855129905564938,-0.2272237415263138,-0.7843888063648092,-5.8125,4.5625,-3.625,0.5732421875,0.6279296875,0.3876953125
1969/12/31/18:00:14.870000,185,1731186309,397765178,RL_myo,-0.3129747212915005,-0.4842319498297124,-0.2267968144148237,-0.7849391362187964,-8.8125,5.6875,-2.0,0.56298828125,0.6337890625,0.3828125
1969/12/31/18:00:14.886000,186,1731186309,414044523,RL_myo,-0.3135171990347543,-0.4826956447665703,-0.2259984792730572,-0.7858985734807341,-10.5,7.8125,0.5625,0.5595703125,0.626953125,0.3837890625
1969/12/31/18:00:14.907000,187,1731186309,435004908,RL_myo,-0.3138215121682398,-0.4806803247446629,-0.2247772519089123,-0.7873612074061576,-12.0625,9.9375,3.1875,0.55810546875,0.6171875,0.4072265625
1969/12/31/18:00:14.907000,1,1731186314,489997190,RL_myo,-0.3151200544000253,-0.5396652180912306,-0.1761449693973412,-0.7605483242066077,19.5,19.0,-29.125,1.0380859375,0.70166015625,0.4892578125
1969/12/31/18:00:14.929000,2,1731186314,512560696,RL_myo,-0.3184636324729195,-0.5331122709181587,-0.1877336399936183,-0.761004797490386,29.5,49.625,-62.625,1.1005859375,0.86767578125,0.53466796875
1969/12/31/18:00:14.946000,3,1731186314,529009839,RL_myo,-0.3220702685528769,-0.5217697035926748,-0.2076337035468803,-0.7621780393572726,49.1875,85.25,-77.75,0.8876953125,1.0537109375,0.498046875
1969/12/31/18:00:14.975000,4,1731186314,558347833,RL_myo,-0.3243222587464711,-0.5054032037409725,-0.2297842123034369,-0.7658863426814954,52.8125,121.0,-84.3125,0.767578125,1.25830078125,0.47216796875
1969/12/31/18:00:14.989000,5,1731186314,572580500,RL_myo,-0.3274404255640771,-0.4833179366340963,-0.2571307572975688,-0.7701105852315983,59.25,157.375,-109.75,0.74853515625,1.375,0.35009765625
1969/12/31/18:00:15.006000,6,1731186314,589018683,RL_myo,-0.3338966662883282,-0.4551028039685731,-0.2889173493344811,-0.7732536578090147,57.6875,186.5,-147.5625,0.61328125,1.39794921875,0.20947265625
1969/12/31/18:00:15.027000,7,1731186314,610026601,RL_myo,-0.3423233485461873,-0.4237998453030352,-0.3247463964368448,-0.773141768476217,70.0,194.375,-177.9375,0.4091796875,1.4052734375,0.23974609375
1969/12/31/18:00:15.050000,8,1731186314,632667652,RL_myo,-0.3516069326979828,-0.3942074602145931,-0.3614331288730175,-0.768335302158463,84.0,175.125,-190.0,0.22119140625,1.2919921875,0.162109375
1969/12/31/18:00:15.066000,9,1731186314,649131803,RL_myo,-0.3624019096013982,-0.3638666529207707,-0.4007293597916438,-0.7587370394349248,101.8125,168.0625,-213.1875,0.04638671875,1.34375,0.26416015625
1969/12/31/18:00:15.087000,10,1731186314,670192237,RL_myo,-0.3718103675096015,-0.3360452861963011,-0.4413264555912555,-0.7443531257628202,129.1875,152.4375,-214.375,-0.1201171875,1.060546875,0.22802734375
1969/12/31/18:00:15.109000,11,1731186314,692619535,RL_myo,-0.3775993943984068,-0.3134557119169577,-0.4822677249937305,-0.7256597380632063,161.375,128.3125,-188.375,-0.71533203125,0.73876953125,0.1904296875
1969/12/31/18:00:15.126000,12,1731186314,709062379,RL_myo,-0.3859570253955705,-0.3000870799920968,-0.5268765022517331,-0.6952597143115653,223.125,72.75,-211.625,-0.36328125,1.04296875,0.111328125
1969/12/31/18:00:15.147000,13,1731186314,730104154,RL_myo,-0.3972639942456625,-0.2907613563660065,-0.5721236260652697,-0.6559830097023168,257.875,33.8125,-231.4375,-0.470703125,0.98291015625,0.103515625
1969/12/31/18:00:15.169000,14,1731186314,752707305,RL_myo,-0.4111653664887124,-0.2837938183423649,-0.6117740290459928,-0.6132998022628872,250.6875,-0.75,-234.3125,-0.41552734375,0.97412109375,0.11083984375
1969/12/31/18:00:15.186000,15,1731186314,769086999,RL_myo,-0.410805713980523,-0.2590804123974625,-0.6476094831447526,-0.5871268709690435,162.125,130.1875,-202.9375,-0.38818359375,0.95361328125,0.1455078125
1969/12/31/18:00:15.207000,16,1731186314,789927865,RL_myo,-0.4231414962820397,-0.2487703359073408,-0.6695925797937773,-0.5574140033959135,147.25,-2.0,-175.125,-0.70263671875,0.83349609375,0.3017578125
1969/12/31/18:00:15.238000,17,1731186314,820822863,RL_myo,-0.4383293812896619,-0.2403426766247129,-0.6807471343504441,-0.5354307521657204,83.3125,-33.625,-145.0625,-0.49658203125,0.5732421875,0.30859375
1969/12/31/18:00:15.253000,18,1731186314,836479955,RL_myo,-0.45310428179295,-0.2357069957279597,-0.6859427563403778,-0.5182868481931211,55.375,-52.0625,-109.6875,-0.38037109375,0.32177734375,0.2705078125
1969/12/31/18:00:15.267000,19,1731186314,849960149,RL_myo,-0.4657855840365129,-0.2357612304943722,-0.6883031730560525,-0.5036855902847669,62.375,-56.25,-63.5,-0.3271484375,0.19677734375,0.2265625
1969/12/31/18:00:15.283000,20,1731186314,866588991,RL_myo,-0.4737957917948555,-0.2443743849473916,-0.6900341648889137,-0.4895421932225346,86.1875,-64.25,-15.75,-0.291015625,0.17626953125,0.19580078125
1969/12/31/18:00:15.307000,21,1731186314,890631579,RL_myo,-0.4756796435376726,-0.2607266406457451,-0.6924025604227477,-0.4757406750546776,104.75,-65.125,21.625,-0.26806640625,0.19775390625,0.1142578125
1969/12/31/18:00:15.327000,22,1731186314,910006869,RL_myo,-0.4758721920815614,-0.2814829485545929,-0.6924163164249473,-0.4635435807181555,105.875,-74.5625,51.6875,-0.3662109375,0.34765625,0.0224609375
1969/12/31/18:00:15.344000,23,1731186314,926688094,RL_myo,-0.4759956768941218,-0.309436861373663,-0.6911977228908744,-0.447127109748216,136.5,-104.75,71.4375,-0.443359375,0.505859375,-0.16943359375
1969/12/31/18:00:15.366000,24,1731186314,949034671,RL_myo,-0.473851780653608,-0.3449523781883298,-0.6918577776261335,-0.4216694941442269,200.25,-126.9375,76.375,-0.2880859375,0.556640625,-0.30419921875
1969/12/31/18:00:15.387000,25,1731186314,969917089,RL_myo,-0.4693890988591704,-0.3818707049228747,-0.6897108576527741,-0.3976777230745487,198.9375,-126.5,89.875,0.13427734375,0.7197265625,-0.23046875
1969/12/31/18:00:15.403000,26,1731186314,986516352,RL_myo,-0.4596325457084987,-0.4164828697271007,-0.6844136724970262,-0.3832203896565746,161.6875,-88.625,121.0625,0.35791015625,0.9462890625,-0.15771484375
1969/12/31/18:00:15.426000,27,1731186315,9072806,RL_myo,-0.4468130907446458,-0.4471182492549209,-0.6764143538755512,-0.3780303625286623,114.75,-53.125,145.5,0.25830078125,0.9169921875,-0.28173828125
1969/12/31/18:00:15.455000,28,1731186315,38115065,RL_myo,-0.4380222153443067,-0.4714063802869478,-0.6645096670849674,-0.3799203414404778,51.4375,-46.5625,142.1875,0.1767578125,0.89990234375,-0.35791015625
1969/12/31/18:00:15.463000,29,1731186315,46512963,RL_myo,-0.4364989086947056,-0.4875214321383261,-0.649194475920803,-0.3877345591355515,-20.9375,-49.375,119.875,0.189453125,0.8388671875,-0.43701171875
1969/12/31/18:00:15.486000,30,1731186315,68980016,RL_myo,-0.435525016994945,-0.5014396776387988,-0.6351609938153577,-0.3942673219993476,-21.125,-46.0625,104.8125,0.162109375,0.79345703125,-0.46142578125
1969/12/31/18:00:15.515000,31,1731186315,98183509,RL_myo,-0.4327076056892349,-0.5146718249333312,-0.6228792417015984,-0.3998730934380631,-10.9375,-40.5625,86.5,0.14892578125,0.8173828125,-0.32666015625
1969/12/31/18:00:15.531000,32,1731186315,113943386,RL_myo,-0.4316203320318653,-0.5218870841635295,-0.6144120309056544,-0.4047661258534122,-20.5,-26.0,46.375,0.18798828125,0.86083984375,-0.34228515625
1969/12/31/18:00:15.546000,33,1731186315,128903136,RL_myo,-0.4296039230104341,-0.5270719532771856,-0.6098923146247007,-0.4070221000932782,-12.3125,-14.875,28.75,0.10498046875,0.91259765625,-0.47998046875
1969/12/31/18:00:15.567000,34,1731186315,150122826,RL_myo,-0.4222776858889083,-0.5354913160845906,-0.6075086118424907,-0.4072639106715833,27.4375,-3.25,44.6875,0.0712890625,0.8994140625,-0.43408203125
1969/12/31/18:00:15.583000,35,1731186315,166534516,RL_myo,-0.4134851578343991,-0.5424437022630464,-0.6048784353205505,-0.4109828860305304,26.5,16.375,52.1875,0.09228515625,0.92626953125,-0.2861328125
1969/12/31/18:00:15.621000,36,1731186315,204521128,RL_myo,-0.4068301013471765,-0.5458578497523473,-0.6036538452482633,-0.4148861429580117,10.6875,23.25,37.625,0.005859375,0.953125,-0.3515625
1969/12/31/18:00:15.643000,37,1731186315,226422530,RL_myo,-0.3987223781571773,-0.5502649565995884,-0.6036679997478405,-0.4169099288522392,25.6875,21.5625,32.75,0.072265625,0.9287109375,-0.37060546875
1969/12/31/18:00:15.650000,38,1731186315,233176435,RL_myo,-0.39254680708195,-0.5523851291820163,-0.606580024189599,-0.4157383162068164,27.25,16.9375,3.875,0.0703125,1.33251953125,-0.61328125
1969/12/31/18:00:15.674000,39,1731186315,257161140,RL_myo,-0.3847450829606649,-0.5535593119373781,-0.6196568571224035,-0.4019560781057962,108.5625,9.8125,-50.4375,-0.01123046875,1.22607421875,-0.36181640625
1969/12/31/18:00:15.689000,40,1731186315,272071665,RL_myo,-0.3836474969888374,-0.5555747955916938,-0.6202687737667125,-0.3992717030386533,9.875,-3.0625,13.9375,-0.22705078125,1.16455078125,-0.62646484375
1969/12/31/18:00:15.703000,41,1731186315,286579061,RL_myo,-0.3860204851228376,-0.5594703220744747,-0.6173276216628462,-0.3960905847347377,-0.125,-30.5,19.75,-0.18017578125,1.19580078125,-0.59326171875
1969/12/31/18:00:15.725000,42,1731186315,308179117,RL_myo,-0.3886582986071175,-0.5624803517530144,-0.6113678042002978,-0.3984846155159972,-20.6875,-25.875,18.6875,0.12646484375,1.04345703125,-0.3818359375
1969/12/31/18:00:15.747000,43,1731186315,330655792,RL_myo,-0.38908271733362,-0.5632086769497484,-0.6072131693728919,-0.4033643417816306,-25.25,2.1875,22.75,0.02685546875,0.96875,-0.36962890625
1969/12/31/18:00:15.763000,44,1731186315,346540200,RL_myo,-0.3876772176908618,-0.5657084588754091,-0.6063559757176814,-0.4025080684306098,5.625,-2.625,21.3125,-0.140625,0.7177734375,-0.37451171875
1969/12/31/18:00:15.793000,45,1731186315,375655144,RL_myo,-0.3848646236646114,-0.5721702897011944,-0.6051883298855514,-0.3978033011490544,21.75,-19.9375,29.625,-0.12109375,0.58740234375,-0.4873046875
1969/12/31/18:00:15.807000,46,1731186315,390623360,RL_myo,-0.3793631791545281,-0.583020664488933,-0.6030385413812569,-0.3905316897377454,56.25,-34.0625,41.5,-0.01123046875,0.87255859375,-0.48046875
1969/12/31/18:00:15.824000,47,1731186315,407375028,RL_myo,-0.3752734012317703,-0.5899769018877091,-0.6032204094608583,-0.3836955396884274,59.125,-25.5,14.25,0.056640625,1.1943359375,-0.458984375
1969/12/31/18:00:15.845000,48,1731186315,428277433,RL_myo,-0.373205004619174,-0.5917572730641882,-0.6048789535209539,-0.3803456400305302,33.4375,-4.4375,-1.5625,-0.01220703125,1.14306640625,-0.43310546875
1969/12/31/18:00:15.869000,49,1731186315,452251104,RL_myo,-0.3716963979919216,-0.5930663217220858,-0.603320015459794,-0.3822552611861092,8.25,8.5625,23.5,-0.095703125,1.029296875,-0.330078125
1969/12/31/18:00:15.884000,50,1731186315,467188382,RL_myo,-0.3705806278079211,-0.5946866991700236,-0.5990199047982124,-0.3875472639295617,-13.5,12.9375,41.875,-0.10400390625,0.99267578125,-0.3564453125
1969/12/31/18:00:15.905000,51,1731186315,488259972,RL_myo,-0.3692502439139268,-0.5959271705083605,-0.5962933690973661,-0.3911000930579245,-6.375,10.125,28.625,-0.048828125,0.90576171875,-0.3466796875
1969/12/31/18:00:15.928000,52,1731186315,510754543,RL_myo,-0.3668044404004569,-0.5976287987356529,-0.5961029899153515,-0.3910953168196552,7.9375,6.8125,17.5,-0.06103515625,0.82373046875,-0.43896484375
1969/12/31/18:00:15.945000,53,1731186315,527734038,RL_myo,-0.3628309812938859,-0.6019515506310509,-0.5965807976699303,-0.3874265886044724,29.4375,-2.1875,25.375,-0.14208984375,0.8662109375,-0.5263671875
1969/12/31/18:00:15.973000,54,1731186315,555775616,RL_myo,-0.3589780993937246,-0.6072478899978851,-0.5952860220140073,-0.3847327335222782,30.625,-9.625,27.625,0.00927734375,0.91259765625,-0.46044921875
1969/12/31/18:00:15.988000,55,1731186315,570788701,RL_myo,-0.3558652762768703,-0.611214327201656,-0.5938818390413694,-0.3835118154902852,21.6875,-6.1875,20.9375,0.08203125,1.0087890625,-0.48486328125
1969/12/31/18:00:16.004000,56,1731186315,587111271,RL_myo,-0.355206427764104,-0.612456443747901,-0.5929872254563634,-0.3835252907336133,6.625,-1.3125,11.1875,0.0146484375,0.939453125,-0.41943359375
1969/12/31/18:00:16.025000,57,1731186315,608247664,RL_myo,-0.3562404280115791,-0.6136709788686702,-0.5911503830255534,-0.3834604435834763,-7.25,-6.5625,14.8125,-0.05908203125,0.9443359375,-0.5126953125
1969/12/31/18:00:16.048000,58,1731186315,630714567,RL_myo,-0.3591097744459295,-0.6148930961153536,-0.5887715829503539,-0.3824848668342353,-7.8125,-17.6875,10.5,-0.0380859375,1.09423828125,-0.52490234375
1969/12/31/18:00:16.079000,59,1731186315,661961044,RL_myo,-0.3638023731506541,-0.6142712440465247,-0.5879671301683277,-0.3802805883411719,-4.6875,-22.375,-10.875,0.00048828125,1.27783203125,-0.521484375
1969/12/31/18:00:16.088000,60,1731186315,671271621,RL_myo,-0.3708254040178669,-0.6103727560208505,-0.5895611262035212,-0.3772947083012596,-8.75,-20.8125,-35.75,-0.02978515625,1.384765625,-0.51220703125
1969/12/31/18:00:16.108000,61,1731186315,690654138,RL_myo,-0.3790659211797674,-0.6041496624953338,-0.5928588565996233,-0.3739392849892827,-13.8125,-17.4375,-53.6875,-0.05615234375,1.4287109375,-0.53076171875
1969/12/31/18:00:16.139000,62,1731186315,722189359,RL_myo,-0.3869435248666615,-0.5964667300507702,-0.5977484041867639,-0.3704038253021717,-12.0625,-11.75,-67.9375,-0.02783203125,1.3583984375,-0.49560546875
1969/12/31/18:00:16.168000,63,1731186315,751497530,RL_myo,-0.3938914180797148,-0.587053230633526,-0.6047521012940648,-0.3667328062040604,-6.3125,-2.375,-83.1875,-0.001953125,1.2744140625,-0.423828125
1969/12/31/18:00:16.169000,64,1731186315,752244983,RL_myo,-0.3994437435697139,-0.5757604701049168,-0.6156132989133237,-0.3605063702469518,3.4375,8.0,-101.8125,-0.06982421875,1.2177734375,-0.36083984375
1969/12/31/18:00:16.192000,65,1731186315,774687966,RL_myo,-0.4054965330991771,-0.5625928720813087,-0.6277750360412607,-0.3534972787041592,2.875,10.9375,-115.125,-0.14892578125,1.15185546875,-0.33642578125
1969/12/31/18:00:16.221000,66,1731186315,804626648,RL_myo,-0.4124529630285414,-0.5480656419053421,-0.6398574821531856,-0.3465386096590793,-3.5,10.375,-121.1875,-0.1826171875,1.0185546875,-0.26904296875
1969/12/31/18:00:16.244000,67,1731186315,827098560,RL_myo,-0.4201998182033915,-0.5324361966603323,-0.6507756952073731,-0.3412254442374963,-17.25,12.5,-119.5625,-0.20263671875,0.89697265625,-0.2265625
1969/12/31/18:00:16.274000,68,1731186315,857724518,RL_myo,-0.4281405786651507,-0.5161489485062266,-0.660367934591152,-0.3379350511858787,-29.5625,15.875,-113.0,-0.2265625,0.8134765625,-0.1943359375
1969/12/31/18:00:16.275000,69,1731186315,858563603,RL_myo,-0.4352723303942954,-0.4999040463067405,-0.6687765278267932,-0.3367074378554862,-39.1875,22.0625,-102.3125,-0.240234375,0.66845703125,-0.2333984375
1969/12/31/18:00:16.296000,70,1731186315,878982986,RL_myo,-0.4411966540135864,-0.4845290131710973,-0.6761678973324835,-0.336710740101391,-40.0,28.6875,-85.0625,-0.2646484375,0.51318359375,-0.2080078125
1969/12/31/18:00:16.327000,71,1731186315,909749923,RL_myo,-0.4454714610748617,-0.4709217418349956,-0.682763287442729,-0.3370788984129965,-34.5625,32.0625,-68.125,-0.3203125,0.4716796875,-0.1962890625
1969/12/31/18:00:16.348000,72,1731186315,931486557,RL_myo,-0.4479668788227487,-0.4593796589780422,-0.6884896948228105,-0.3380502100543877,-29.0,34.0625,-52.5,-0.3330078125,0.45947265625,-0.1943359375
1969/12/31/18:00:16.363000,73,1731186315,945781387,RL_myo,-0.4475466989552821,-0.4513917067330242,-0.693932356078216,-0.3382386207023283,-14.5,35.0625,-32.4375,-0.35205078125,0.4111328125,-0.259765625
1969/12/31/18:00:16.379000,74,1731186315,962204324,RL_myo,-0.4446734788337971,-0.4472978213523056,-0.6986243909155195,-0.3378078102312746,-1.8125,32.25,-11.875,-0.32958984375,0.35595703125,-0.3076171875
1969/12/31/18:00:16.408000,75,1731186315,991263481,RL_myo,-0.439062028603798,-0.4470571809178232,-0.7021696746019872,-0.3381156016770977,10.3125,31.5,7.0625,-0.228515625,0.37939453125,-0.32177734375
1969/12/31/18:00:16.409000,76,1731186315,992045763,RL_myo,-0.4304008718774079,-0.4499922898967851,-0.7060844706111361,-0.3372043132618659,28.5,34.5625,21.3125,-0.22216796875,0.39501953125,-0.3896484375
1969/12/31/18:00:16.431000,77,1731186316,14035869,RL_myo,-0.4206320698996228,-0.4553592387581378,-0.7092520725919206,-0.3356756216552417,35.6875,30.625,34.1875,-0.2421875,0.451171875,-0.47216796875
1969/12/31/18:00:16.462000,78,1731186316,44768073,RL_myo,-0.4115355214646826,-0.4618865232752066,-0.7102237673564454,-0.3359785029902236,25.75,22.0625,41.0,-0.16943359375,0.60009765625,-0.5400390625
1969/12/31/18:00:16.483000,79,1731186316,66571504,RL_myo,-0.4030663579343114,-0.4687385870586783,-0.7094553822877704,-0.3383706675329834,12.6875,17.875,45.125,-0.10205078125,0.708984375,-0.615234375
1969/12/31/18:00:16.490000,80,1731186316,73380179,RL_myo,-0.395737605368995,-0.4751414648053095,-0.7078600782032086,-0.3414182856931151,4.75,16.0,48.1875,-0.15087890625,0.75341796875,-0.6357421875
1969/12/31/18:00:16.514000,81,1731186316,97303421,RL_myo,-0.3907778508325057,-0.4812859802694268,-0.7047183888119544,-0.3450050274490325,-5.4375,6.9375,50.1875,-0.19677734375,0.85400390625,-0.65087890625
1969/12/31/18:00:16.543000,82,1731186316,125732694,RL_myo,-0.3878003815980492,-0.4870391950192687,-0.6997984223171597,-0.350265406042053,-22.6875,-1.6875,48.9375,-0.11865234375,0.8798828125,-0.66796875
1969/12/31/18:00:16.567000,83,1731186316,150374971,RL_myo,-0.3865777786474313,-0.4922855008794097,-0.6935085725877428,-0.3567330464468324,-26.8125,-6.1875,47.75,-0.08935546875,1.0126953125,-0.57177734375
1969/12/31/18:00:16.568000,84,1731186316,151136955,RL_myo,-0.3865877587711747,-0.4963874711218762,-0.6876062030811579,-0.3624183946294972,-25.625,-7.625,41.6875,-0.14111328125,1.04345703125,-0.515625
1969/12/31/18:00:16.597000,85,1731186316,179770936,RL_myo,-0.3862645878879566,-0.5006365009393124,-0.6831189022325641,-0.3653920189106014,-12.4375,-10.6875,34.0625,-0.13330078125,0.9755859375,-0.50830078125
1969/12/31/18:00:16.627000,86,1731186316,209730350,RL_myo,-0.3849332731034318,-0.5056559644303048,-0.6787447170101895,-0.3680272137012357,-6.0625,-11.75,32.125,-0.046875,1.0546875,-0.53564453125
1969/12/31/18:00:16.648000,87,1731186316,231322923,RL_myo,-0.3821732589686329,-0.5102763682907602,-0.6758522308876783,-0.3698450893244835,3.625,-5.125,27.0,-0.017578125,1.0546875,-0.537109375
1969/12/31/18:00:16.649000,88,1731186316,232123643,RL_myo,-0.378705330939031,-0.5138918431114652,-0.674589850583257,-0.3707101015509548,11.5625,2.625,20.8125,-0.0615234375,1.0703125,-0.53857421875
1969/12/31/18:00:16.671000,89,1731186316,254020620,RL_myo,-0.3765110823302852,-0.516092999219467,-0.6748392020304691,-0.3694312824356,11.0625,-0.375,9.375,-0.1513671875,1.087890625,-0.63134765625
1969/12/31/18:00:16.701000,90,1731186316,284685408,RL_myo,-0.3761974111366438,-0.5177902070219477,-0.6745187845363704,-0.3679581751691799,4.25,-8.875,3.875,-0.142578125,1.1298828125,-0.6494140625
1969/12/31/18:00:16.723000,91,1731186316,306454205,RL_myo,-0.3775420456289736,-0.5186473171281956,-0.6722030537597019,-0.3696079256917337,-14.0625,-9.4375,6.0625,-0.076171875,1.07861328125,-0.552734375
1969/12/31/18:00:16.730000,92,1731186316,313213240,RL_myo,-0.3802803730430764,-0.517903907180797,-0.6688320667916987,-0.37393321226688,-35.75,-5.125,8.25,-0.09619140625,0.98876953125,-0.51025390625
1969/12/31/18:00:16.754000,93,1731186316,337164160,RL_myo,-0.3826725506521259,-0.5169436210563807,-0.6661065738145618,-0.377667901664331,-31.125,-2.8125,5.8125,-0.08935546875,0.8828125,-0.4423828125
1969/12/31/18:00:16.783000,94,1731186316,365823305,RL_myo,-0.3834538763054658,-0.5158898004790868,-0.6649870183390666,-0.3802802965556832,-17.25,4.0,2.3125,-0.09521484375,0.82421875,-0.384765625
1969/12/31/18:00:16.807000,95,1731186316,390410879,RL_myo,-0.3826027066043609,-0.5151618195003048,-0.6657250476376406,-0.3808328105297834,2.4375,9.25,0.4375,-0.14599609375,0.84814453125,-0.3583984375
1969/12/31/18:00:16.808000,96,1731186316,391218696,RL_myo,-0.3810092360153431,-0.5150307452720615,-0.6673001740496174,-0.3798496692230491,14.125,9.375,0.5,-0.18359375,0.88623046875,-0.3740234375
1969/12/31/18:00:16.836000,97,1731186316,419643095,RL_myo,-0.3794918898791008,-0.5154693634478749,-0.6679252561654679,-0.3796749834251988,9.6875,7.25,5.8125,-0.16357421875,0.8828125,-0.3818359375
1969/12/31/18:00:16.859000,98,1731186316,442336636,RL_myo,-0.3780829564393789,-0.5163166765903383,-0.6680381018862698,-0.3797307756199863,2.6875,5.375,10.0,-0.158203125,0.80078125,-0.43115234375
1969/12/31/18:00:16.888000,99,1731186316,471366905,RL_myo,-0.3774784324251224,-0.5173621134466877,-0.6672549234767767,-0.3802858710494645,-3.8125,0.75,11.75,-0.14697265625,0.79345703125,-0.44287109375
1969/12/31/18:00:16.889000,100,1731186316,472176286,RL_myo,-0.3774176879363589,-0.5184000390251347,-0.6651193342707696,-0.3826663815266769,-11.6875,0.5625,15.5625,-0.1025390625,0.859375,-0.4013671875
1969/12/31/18:00:16.912000,101,1731186316,494766793,RL_myo,-0.3765126748823706,-0.5176210075664428,-0.6633678494563927,-0.3876206837701306,7.75,14.0625,3.4375,0.00048828125,1.6298828125,-0.30029296875
1969/12/31/18:00:16.940000,102,1731186316,523075578,RL_myo,-0.3776076633673546,-0.5115128215099077,-0.6698309528780858,-0.3835278093745687,-4.375,15.375,-40.25,-0.30126953125,0.70849609375,-0.61083984375
1969/12/31/18:00:16.964000,103,1731186316,547210661,RL_myo,-0.378887568294177,-0.5131582915943042,-0.6680578805650872,-0.3831598185809992,-0.375,-8.6875,17.1875,-0.28759765625,1.107421875,-0.47802734375
1969/12/31/18:00:16.993000,104,1731186316,576321051,RL_myo,-0.3803437763644635,-0.5133298303917686,-0.6668222240946932,-0.3836394380980451,-3.375,-11.9375,-9.0625,0.0400390625,1.08203125,-0.4169921875
1969/12/31/18:00:16.994000,105,1731186316,577224841,RL_myo,-0.3827115149285344,-0.5105668209044999,-0.6653358213603703,-0.3875327889963632,-21.375,3.0625,-10.25,-0.00927734375,0.984375,-0.29248046875
1969/12/31/18:00:17.016000,106,1731186316,599586158,RL_myo,-0.383098237035042,-0.5091294397556667,-0.6648832554181531,-0.3898117635722181,-12.625,7.0625,-1.3125,-0.08642578125,0.83544921875,-0.34765625
1969/12/31/18:00:17.046000,107,1731186316,629017498,RL_myo,-0.381867518823614,-0.5082005480652443,-0.6652318931081017,-0.391632390649054,-4.9375,12.5,2.375,-0.0966796875,0.80615234375,-0.361328125
1969/12/31/18:00:17.047000,108,1731186316,629708062,RL_myo,-0.3794288277926116,-0.5083259943195533,-0.6664569405654366,-0.391757060575965,9.4375,12.0,2.8125,-0.109375,0.8935546875,-0.4013671875
1969/12/31/18:00:17.068000,109,1731186316,651357682,RL_myo,-0.377364526037282,-0.5084015044299789,-0.6676355410515653,-0.3916461529324339,6.6875,9.0625,-0.9375,-0.07666015625,0.94140625,-0.46337890625
1969/12/31/18:00:17.099000,110,1731186316,682210969,RL_myo,-0.3763796248458357,-0.5070474984950872,-0.6676817084179411,-0.3942617766343601,-18.0,11.125,-2.75,-0.037109375,1.0390625,-0.59033203125
1969/12/31/18:00:17.128000,111,1731186316,711410808,RL_myo,-0.3780861609450217,-0.5036876652589611,-0.6665790233803918,-0.3987756215681633,-44.5,7.5,-10.5625,-0.0185546875,1.10546875,-0.6689453125
1969/12/31/18:00:17.129000,112,1731186316,711973165,RL_myo,-0.3810824650329996,-0.498385555646937,-0.6643920106260783,-0.4061665286346271,-74.3125,9.0,-18.5625,0.11181640625,0.94921875,-0.712890625
1969/12/31/18:00:17.151000,113,1731186316,734101955,RL_myo,-0.3888255895813194,-0.4874509471018676,-0.6597401700477262,-0.4194629221774303,-114.875,20.375,-23.875,0.3046875,0.8251953125,-0.7568359375
1969/12/31/18:00:17.182000,114,1731186316,764779555,RL_myo,-0.3967717468483357,-0.4721467825901746,-0.6566477810092669,-0.4341235864224291,-126.125,36.375,-45.9375,0.55322265625,0.79345703125,-0.7001953125
1969/12/31/18:00:17.203000,115,1731186316,786606036,RL_myo,-0.4038599084784567,-0.4478651969797363,-0.6591027885233268,-0.4493300054735376,-129.3125,75.375,-96.25,0.81689453125,0.7880859375,-0.42626953125
1969/12/31/18:00:17.210000,116,1731186316,793123093,RL_myo,-0.407199042443206,-0.4172691626475119,-0.6669471126827571,-0.4639579017765665,-116.875,117.9375,-124.75,0.75341796875,0.63916015625,-0.271484375
1969/12/31/18:00:17.234000,117,1731186316,817188470,RL_myo,-0.4063457144090311,-0.3868767623368651,-0.677751450662705,-0.4752499366330918,-84.875,133.25,-124.6875,0.580078125,0.5537109375,-0.20068359375
1969/12/31/18:00:17.256000,118,1731186316,839087583,RL_myo,-0.4033715548347185,-0.3571690632308629,-0.6921829026146986,-0.480212951042452,-43.5,135.0,-136.25,0.39599609375,0.544921875,-0.1591796875
1969/12/31/18:00:17.287000,119,1731186316,870510199,RL_myo,-0.3995794650416463,-0.3275001389053725,-0.7095632901442157,-0.4791657828076928,-8.5,133.625,-151.0,0.20703125,0.56396484375,-0.10888671875
1969/12/31/18:00:17.288000,120,1731186316,871051745,RL_myo,-0.3960386290758748,-0.2989362313474548,-0.7261013361250859,-0.4759909490156799,1.375,124.3125,-148.5625,0.03173828125,0.583984375,-0.02001953125
1969/12/31/18:00:17.315000,121,1731186316,898223906,RL_myo,-0.3934209181525331,-0.2726969690204031,-0.7394799634402873,-0.4733135619411875,-4.0,109.1875,-132.3125,-0.1416015625,0.6083984375,0.06201171875
1969/12/31/18:00:17.339000,122,1731186316,922204403,RL_myo,-0.3923060029180089,-0.2493718618424058,-0.7484207395431773,-0.4730497555409905,-21.9375,89.4375,-109.375,-0.2998046875,0.62548828125,0.0615234375
1969/12/31/18:00:17.370000,123,1731186316,952983129,RL_myo,-0.3948723235787514,-0.2284400474737661,-0.7492809144631114,-0.4800719779397926,-67.0625,64.4375,-73.25,-0.41845703125,0.6591796875,0.00927734375
1969/12/31/18:00:17.370000,124,1731186316,953609763,RL_myo,-0.3978173148476791,-0.2122139925936453,-0.7441832647956047,-0.4928467041109249,-106.375,39.5625,-37.5,-0.61962890625,0.70556640625,0.044921875
1969/12/31/18:00:17.384000,125,1731186316,967240380,RL_myo,-0.4023859888268211,-0.2022000274508203,-0.7327538574025201,-0.5101690399823142,-130.0625,6.9375,3.8125,-0.6875,0.7138671875,0.16064453125
1969/12/31/18:00:17.407000,126,1731186316,989725966,RL_myo,-0.4084189876290851,-0.1968857821415763,-0.7128412695020494,-0.5350581686407934,-178.125,-24.6875,45.125,-0.56201171875,0.630859375,0.19873046875
1969/12/31/18:00:17.429000,127,1731186317,12319606,RL_myo,-0.4133740180106039,-0.1933513788657305,-0.6857016229660615,-0.5670541859348178,-225.375,-35.5,82.25,-0.6533203125,0.7265625,0.1572265625
1969/12/31/18:00:17.445000,128,1731186317,28087517,RL_myo,-0.4149579535661297,-0.1982936301127159,-0.6560351585354213,-0.59842075815795,-207.5,-57.1875,130.1875,-0.83447265625,0.92236328125,0.2119140625
1969/12/31/18:00:17.482000,129,1731186317,65159439,RL_myo,-0.4223946018878471,-0.2077490571920577,-0.6201956284329291,-0.627519331976715,-215.625,-112.75,128.75,-0.75439453125,0.841796875,0.296875
1969/12/31/18:00:17.489000,130,1731186317,71934396,RL_myo,-0.4320466036971248,-0.2184340718508277,-0.5760824823134851,-0.6585979517581119,-252.8125,-143.8125,138.6875,-0.63623046875,0.81103515625,0.3623046875
1969/12/31/18:00:17.507000,131,1731186317,90226777,RL_myo,-0.4296565119931097,-0.2320999595326415,-0.5362772401823089,-0.6884269112616872,-212.375,-108.0,188.375,-0.75634765625,0.86669921875,0.28662109375
1969/12/31/18:00:17.527000,132,1731186317,109661604,RL_myo,-0.4331385457294572,-0.2574296725217487,-0.4951462620125527,-0.7077790213927738,-161.375,-189.5,175.5625,-0.58935546875,0.81982421875,0.5341796875
