time,.header.seq,.header.stamp.secs,.header.stamp.nsecs,.header.frame_id,.orientation.x,.orientation.y,.orientation.z,.orientation.w,.angular_velocity.x,.angular_velocity.y,.angular_velocity.z,.linear_acceleration.x,.linear_acceleration.y,.linear_acceleration.z
1969/12/31/18:00:36.975,1,1730344459,245386024,RL_myo,-0.13184355210369292,0.3106258503035617,0.3694061006164581,0.8658336974957797,-186.125,-88.25,162.125,0.58056640625,1.49169921875,0.67578125
1969/12/31/18:00:36.992,2,1730344459,261751905,RL_myo,-0.13288236001898235,0.3446884184782698,0.3176480484790005,0.873287976477529,-300.4375,-113.5,167.1875,0.716796875,0.77001953125,0.49755859375
1969/12/31/18:00:37.014,3,1730344459,284427501,RL_myo,-0.13782277957945846,0.376601660764065,0.2813220509662197,0.8717992740183371,-187.25,-128.0,148.75,1.0595703125,-0.0185546875,0.94482421875
1969/12/31/18:00:37.036,4,1730344459,305481963,RL_myo,-0.15338930573903745,0.3901569607178382,0.2799827876740807,0.8636312323524238,34.6875,-63.0,104.125,1.23095703125,0.22607421875,1.15869140625
1969/12/31/18:00:37.051,5,1730344459,321290873,RL_myo,-0.16767153869096482,0.387042310462107,0.3083642568135254,0.8526405984616264,198.8125,-18.5,8.625,0.4111328125,-0.0205078125,0.83837890625
1969/12/31/18:00:37.081,6,1730344459,350391441,RL_myo,-0.18879271512316614,0.37673088837380586,0.357686812357502,0.8333614418288353,333.4375,-3.8125,-6.5625,0.8076171875,0.4638671875,0.6015625
1969/12/31/18:00:37.096,7,1730344459,365407959,RL_myo,-0.20673721174654042,0.3634228989485981,0.4124367699354513,0.8093697749510262,360.6875,-7.125,-31.375,1.06005859375,0.88427734375,0.27734375
1969/12/31/18:00:37.112,8,1730344459,381919283,RL_myo,-0.22272867472218352,0.3487116795527088,0.4487534164312122,0.7920937275609141,258.125,28.375,-13.9375,1.0078125,0.90771484375,0.35107421875
1969/12/31/18:00:37.134,9,1730344459,404402675,RL_myo,-0.24030330728910157,0.3335070538551311,0.47254970917760336,0.7795666346701563,193.625,59.0,11.5625,1.2705078125,1.14013671875,0.546875
1969/12/31/18:00:37.156,10,1730344459,425496071,RL_myo,-0.24841966725835782,0.31232516888477074,0.482922950208385,0.7794395948130785,96.1875,93.625,-37.0625,1.31103515625,1.15771484375,0.76708984375
1969/12/31/18:00:37.171,11,1730344459,441206167,RL_myo,-0.24232241728058213,0.28700252041644764,0.4821422604784177,0.7914848324627981,-11.125,117.375,-111.75,1.13671875,1.12646484375,0.73828125
1969/12/31/18:00:37.195,12,1730344459,464453651,RL_myo,-0.23365584699078817,0.25349339930844916,0.48061811369003815,0.8063202034347732,-16.375,153.9375,-147.8125,0.9990234375,1.26025390625,0.701171875
1969/12/31/18:00:37.215,13,1730344459,485405002,RL_myo,-0.21899836790187363,0.2138102794761046,0.4776703531772751,0.8235022240055961,-32.375,172.6875,-192.25,0.7099609375,1.22216796875,0.53076171875
1969/12/31/18:00:37.231,14,1730344459,501182601,RL_myo,-0.1956917179741808,0.16700328770348055,0.469757785879381,0.8444775165853996,-70.875,194.9375,-251.25,0.45361328125,1.17626953125,0.30126953125
1969/12/31/18:00:37.260,15,1730344459,530436120,RL_myo,-0.16699489834225112,0.11334412508097964,0.45777110291187256,0.8658587821210433,-88.0625,219.125,-296.4375,0.43798828125,0.96044921875,0.31591796875
1969/12/31/18:00:37.283,16,1730344459,552944102,RL_myo,-0.13464852969642377,0.056642717841469285,0.4502119469813335,0.8808919222931948,-43.125,215.5,-321.6875,0.30224609375,0.43896484375,0.375
1969/12/31/18:00:37.291,17,1730344459,561221986,RL_myo,-0.10437704528695681,-0.0036623524662090104,0.4607849794568637,0.8813451209931984,88.8125,216.25,-309.5625,-0.22802734375,0.15966796875,0.0986328125
1969/12/31/18:00:37.314,18,1730344459,584384676,RL_myo,-0.07507811772340696,-0.06757030595106626,0.48294151823381776,0.8698074614297148,177.875,225.1875,-298.5,-0.82470703125,0.52734375,0.076171875
1969/12/31/18:00:37.338,19,1730344459,607393027,RL_myo,-0.05200277481791381,-0.12622269756272975,0.5050128624922756,0.8522473530311391,191.875,221.1875,-252.8125,-0.771484375,0.92578125,0.3876953125
1969/12/31/18:00:37.358,20,1730344459,627977432,RL_myo,-0.0360720790929809,-0.1848159991430561,0.5200238813404353,0.8331368521475284,159.625,247.25,-225.5,-0.685546875,0.9462890625,0.52978515625
1969/12/31/18:00:37.374,21,1730344459,644370384,RL_myo,-0.026184463921650535,-0.2453649066784036,0.5295487388910024,0.8115963094782918,137.6875,280.1875,-206.8125,-0.8017578125,0.79541015625,0.58642578125
1969/12/31/18:00:37.397,22,1730344459,666919314,RL_myo,-0.021240581153358477,-0.3012134137696095,0.5402309878976319,0.7854742496050869,150.1875,280.25,-164.75,-0.91552734375,0.564453125,0.505859375
1969/12/31/18:00:37.418,23,1730344459,688009590,RL_myo,-0.019226993669590527,-0.34657419065376194,0.5550192172621798,0.7559565606281863,171.75,247.375,-110.125,-0.90380859375,0.3330078125,0.33740234375
1969/12/31/18:00:37.434,24,1730344459,704227090,RL_myo,-0.01696847115960366,-0.3779452281304527,0.5653919005446356,0.7329402938292112,129.125,173.9375,-76.0,-1.01611328125,0.44482421875,0.2275390625
1969/12/31/18:00:37.463,25,1730344459,733005363,RL_myo,-0.014771243378991366,-0.3935132481998237,0.579252477961273,0.7137196232667191,128.125,99.0625,-21.125,-0.81396484375,0.52099609375,0.09912109375
1969/12/31/18:00:37.478,26,1730344459,747995340,RL_myo,-0.012634767074070019,-0.398147756638448,0.6003040298235682,0.6935083260656211,160.375,57.125,31.5625,-0.64990234375,0.33203125,0.11474609375
1969/12/31/18:00:37.494,27,1730344459,764341440,RL_myo,-0.018249365893254266,-0.39324636939878677,0.6186474003144657,0.6799262075279349,112.125,32.8125,84.75,-0.44091796875,0.43115234375,0.3388671875
1969/12/31/18:00:37.517,28,1730344459,786988843,RL_myo,-0.028016455353151788,-0.38289155649307444,0.6327812475950427,0.6724559665047347,62.8125,12.125,107.5,-0.31201171875,0.53369140625,0.22802734375
1969/12/31/18:00:37.538,29,1730344459,808067488,RL_myo,-0.03796408717821801,-0.36676237918635374,0.6449011979502436,0.6694374729432397,34.4375,-20.375,124.8125,-0.27099609375,0.43115234375,0.05029296875
1969/12/31/18:00:37.555,30,1730344459,824496000,RL_myo,-0.05041663797067443,-0.34528682929794824,0.6589564449532701,0.6663419330821462,35.0625,-32.8125,156.6875,-0.1015625,0.33837890625,-0.01220703125
1969/12/31/18:00:37.577,31,1730344459,846988514,RL_myo,-0.06713951288918425,-0.3220865541056594,0.6707237337629507,0.6647422135237325,12.75,-25.9375,169.375,0.185546875,0.47900390625,0.0419921875
1969/12/31/18:00:37.598,32,1730344459,867932343,RL_myo,-0.08111665776723742,-0.2993198568025074,0.6809770885696523,0.6633987609270907,9.6875,-35.0,155.9375,0.10888671875,0.49169921875,-0.05322265625
1969/12/31/18:00:37.615,33,1730344459,884813909,RL_myo,-0.08886775791510307,-0.2731951129313196,0.6947676430958917,0.6593670252450952,38.3125,-69.625,157.9375,-0.1220703125,0.29150390625,-0.28662109375
1969/12/31/18:00:37.637,34,1730344459,906909746,RL_myo,-0.0927748968641576,-0.24213027359217976,0.7160146809956796,0.6481425196055852,99.8125,-96.4375,174.3125,0.10205078125,0.40771484375,-0.271484375
1969/12/31/18:00:37.658,35,1730344459,927963760,RL_myo,-0.09546527933760185,-0.21241635044428034,0.7430909914680083,0.6273607039845728,167.0,-86.5,170.3125,0.53173828125,0.59814453125,-0.09814453125
1969/12/31/18:00:37.675,36,1730344459,944442527,RL_myo,-0.09918572878278376,-0.18677435696942662,0.766324199918677,0.6066504359212848,152.5,-66.0625,152.4375,0.53271484375,0.673828125,-0.21142578125
1969/12/31/18:00:37.697,37,1730344459,966944126,RL_myo,-0.10504474351673934,-0.16193126353858772,0.785424613348868,0.5880918673932501,122.125,-55.0625,150.0,0.61376953125,0.689453125,-0.54833984375
1969/12/31/18:00:37.718,38,1730344459,987917190,RL_myo,-0.11145407375178293,-0.14154545291915915,0.8059362485315125,0.5639234323070769,154.75,-34.125,133.75,0.826171875,0.83544921875,-0.63427734375
1969/12/31/18:00:37.734,39,1730344460,4406929,RL_myo,-0.11798458208437929,-0.13074132168895003,0.8208260009677871,0.543351655310473,129.75,-1.125,86.9375,0.6328125,1.11572265625,-0.52197265625
1969/12/31/18:00:37.757,40,1730344460,26933642,RL_myo,-0.1240914430593319,-0.12628883211498165,0.8277442495462862,0.5324395759009111,56.625,12.8125,37.875,0.31689453125,1.22216796875,-0.669921875
1969/12/31/18:00:37.778,41,1730344460,47905433,RL_myo,-0.12951869415906966,-0.1223774654990267,0.8296642835552469,0.5290612822671139,1.75,11.0,27.75,0.28125,1.15869140625,-0.72607421875
1969/12/31/18:00:37.795,42,1730344460,64444342,RL_myo,-0.1400759267637079,-0.11627217450320851,0.8266005560613925,0.5325326627509156,-39.5,24.0,39.3125,0.39794921875,1.14111328125,-0.51953125
1969/12/31/18:00:37.825,43,1730344460,94421468,RL_myo,-0.14783142287350032,-0.11395593167003513,0.8213128101510406,0.5390780870432514,-56.25,29.0,23.5625,0.1796875,1.0986328125,-0.48046875
1969/12/31/18:00:37.838,44,1730344460,107968144,RL_myo,-0.15057644825233396,-0.11358847596173227,0.816909275804312,0.5450537830941801,-52.75,15.875,10.4375,0.00439453125,1.005859375,-0.529296875
1969/12/31/18:00:37.854,45,1730344460,123715172,RL_myo,-0.1522824907618031,-0.1113279611821759,0.8140857161446613,0.5492545628719304,-36.3125,4.375,18.25,0.015625,0.99853515625,-0.44775390625
1969/12/31/18:00:37.877,46,1730344460,146854648,RL_myo,-0.15363099066464111,-0.1095620294966352,0.8138108853919984,0.5496412677533148,-1.375,2.6875,18.875,0.0302734375,0.99609375,-0.3154296875
1969/12/31/18:00:37.898,47,1730344460,167995427,RL_myo,-0.1543025805003131,-0.10937904440528523,0.8138728672433444,0.5493977559665024,2.3125,6.1875,13.0,-0.01123046875,0.9697265625,-0.341796875
1969/12/31/18:00:37.914,48,1730344460,184372709,RL_myo,-0.15570596503785197,-0.10937871005403009,0.81606771954374,0.54573384296489,19.375,8.0625,11.0,0.1044921875,0.95458984375,-0.421875
1969/12/31/18:00:37.944,49,1730344460,214362710,RL_myo,-0.1601621363632112,-0.10937901995536375,0.8185725650788969,0.5406692850248952,30.4375,20.0625,15.875,0.2158203125,0.9609375,-0.3544921875
1969/12/31/18:00:37.958,50,1730344460,227953589,RL_myo,-0.1636366943836613,-0.11181739056727621,0.8210521495147377,0.5353440680488972,32.4375,27.3125,12.125,0.07080078125,1.0380859375,-0.43017578125
1969/12/31/18:00:37.974,51,1730344460,244178897,RL_myo,-0.16211293422827924,-0.11621348899497126,0.8224057514276486,0.5327875763850337,20.375,14.9375,-2.3125,-0.14306640625,1.052734375,-0.451171875
1969/12/31/18:00:37.997,52,1730344460,266866015,RL_myo,-0.16022453983554558,-0.117131768359776,0.8222418194760512,0.5334103823325077,-3.875,-0.375,2.5625,-0.06298828125,0.9599609375,-0.435546875
1969/12/31/18:00:38.018,53,1730344460,287944093,RL_myo,-0.160773916455027,-0.11615518717308898,0.8210822794810262,0.5352416375831935,-15.5625,0.9375,6.1875,0.10009765625,0.9052734375,-0.404296875
1969/12/31/18:00:38.034,54,1730344460,303679114,RL_myo,-0.1604690003039538,-0.11700991768074533,0.8209005648869817,0.5354256640039113,-3.375,1.875,-4.625,0.12744140625,0.921875,-0.4189453125
1969/12/31/18:00:38.057,55,1730344460,326813822,RL_myo,-0.16004140669745717,-0.11914600529116567,0.8216313407911789,0.5339596589585642,14.375,4.75,-8.4375,0.1171875,0.91748046875,-0.33349609375
1969/12/31/18:00:38.078,56,1730344460,347903860,RL_myo,-0.16223845452070554,-0.11890162129658931,0.8217518108398264,0.5331651242431764,-3.9375,10.8125,8.25,0.14208984375,0.85595703125,-0.4521484375
1969/12/31/18:00:38.095,57,1730344460,364333335,RL_myo,-0.16406557860252616,-0.11920389695339792,0.8223420909642243,0.5316261866175606,1.0625,11.0625,6.3125,0.1484375,0.97607421875,-0.5166015625
1969/12/31/18:00:38.117,58,1730344460,386951827,RL_myo,-0.1638817504950651,-0.12268242774490906,0.8241085270705285,0.5281447996401484,23.5,10.875,-12.125,0.142578125,0.984375,-0.447265625
1969/12/31/18:00:38.138,59,1730344460,407883960,RL_myo,-0.16406442219626335,-0.12530664388725024,0.8250829089468333,0.5259461034468755,14.25,10.875,-6.3125,0.10400390625,0.94482421875,-0.42724609375
1969/12/31/18:00:38.154,60,1730344460,423655939,RL_myo,-0.1643701988928125,-0.1265888572237999,0.8257573044266099,0.5244831485651459,2.0625,8.125,-0.125,0.0869140625,0.9091796875,-0.521484375
1969/12/31/18:00:38.177,61,1730344460,446818306,RL_myo,-0.16467446834479216,-0.12793094353249976,0.8251423786335231,0.525029568829467,-6.1875,5.75,-7.125,0.154296875,0.95849609375,-0.4560546875
1969/12/31/18:00:38.200,62,1730344460,469414850,RL_myo,-0.16400608414956028,-0.1299475076867934,0.8230822645168666,0.5279689720482681,-17.25,4.875,-10.75,0.064453125,0.96337890625,-0.40576171875
1969/12/31/18:00:38.222,63,1730344460,491899066,RL_myo,-0.1629737906389702,-0.13031799363827765,0.8228650455445532,0.528535600428031,-7.25,-0.3125,1.25,0.00732421875,0.8056640625,-0.419921875
1969/12/31/18:00:38.237,64,1730344460,506880384,RL_myo,-0.1630863925512077,-0.12927282164051568,0.8220848133503804,0.5299697404648714,-11.75,-1.5,6.25,0.08056640625,0.9013671875,-0.40576171875
1969/12/31/18:00:38.259,65,1730344460,529372923,RL_myo,-0.16333389994587053,-0.12903133949386034,0.8233224874326784,0.5280274919401069,11.375,0.1875,2.875,0.15673828125,0.90234375,-0.4033203125
1969/12/31/18:00:38.281,66,1730344460,550531533,RL_myo,-0.1631522927258234,-0.12958186212380213,0.8242456269994461,0.526506426132792,11.8125,2.5625,3.4375,0.0703125,0.94775390625,-0.3876953125
1969/12/31/18:00:38.297,67,1730344460,566822457,RL_myo,-0.16211384739971654,-0.12976432212793576,0.8257063733521707,0.5244895672837968,13.0,-1.4375,4.5,0.0498046875,0.9365234375,-0.43505859375
1969/12/31/18:00:38.319,68,1730344460,589366599,RL_myo,-0.16235453474614642,-0.12829670377308264,0.826360167642134,0.5237459634047679,2.8125,-3.8125,7.25,0.15966796875,0.9326171875,-0.4296875
1969/12/31/18:00:38.334,69,1730344460,603660576,RL_myo,-0.16364267950833794,-0.1268978480782673,0.8262704037688813,0.5238274806193794,-3.1875,0.9375,8.5625,0.17138671875,0.94775390625,-0.419921875
1969/12/31/18:00:38.357,70,1730344460,626933335,RL_myo,-0.16406720201325284,-0.12567498844690758,0.8263786637118415,0.5238187230943958,-5.125,0.8125,11.5625,0.0771484375,0.94580078125,-0.478515625
1969/12/31/18:00:38.380,71,1730344460,649396940,RL_myo,-0.16174200990902413,-0.12383944834166413,0.8279359865720424,0.5225182440872285,5.0625,-12.875,11.375,0.02294921875,0.92236328125,-0.49609375
1969/12/31/18:00:38.394,72,1730344460,663717194,RL_myo,-0.15930767597874024,-0.12122032356083454,0.8303531126493419,0.520038850321405,14.6875,-19.375,9.0625,0.138671875,0.8916015625,-0.45751953125
1969/12/31/18:00:38.417,73,1730344460,686930389,RL_myo,-0.15863614995720676,-0.11822940456602905,0.8325498597215468,0.5174138680982077,16.5,-13.5625,12.9375,0.189453125,0.88427734375,-0.416015625
1969/12/31/18:00:38.440,74,1730344460,709449090,RL_myo,-0.15930505954803337,-0.11468743559032747,0.8342458060929195,0.5152694684691562,11.125,-8.375,19.5625,0.1923828125,0.9453125,-0.4453125
1969/12/31/18:00:38.461,75,1730344460,730536615,RL_myo,-0.15827174446817027,-0.11328667864748324,0.8379918163530697,0.5097900539136746,33.0625,-7.375,13.75,0.111328125,0.89794921875,-0.48828125
1969/12/31/18:00:38.477,76,1730344460,746920227,RL_myo,-0.15735312892400355,-0.1127961917189909,0.8406001906677179,0.5058738295275955,29.3125,-4.125,8.875,0.07568359375,0.85498046875,-0.380859375
1969/12/31/18:00:38.500,77,1730344460,769421375,RL_myo,-0.15570517438219547,-0.11224688972514993,0.8440795203964646,0.500685827305821,27.9375,-5.0,10.5625,0.06005859375,0.892578125,-0.58056640625
1969/12/31/18:00:38.521,78,1730344460,790459179,RL_myo,-0.15405618673330262,-0.11072025464905348,0.848529757514411,0.49396858923637804,41.25,-9.75,15.1875,0.10498046875,0.91748046875,-0.546875
1969/12/31/18:00:38.537,79,1730344460,806921281,RL_myo,-0.15399508308610904,-0.10858392897748236,0.8523746869986177,0.4878036876829899,37.25,-5.8125,17.75,0.166015625,0.896484375,-0.52392578125
1969/12/31/18:00:38.559,80,1730344460,829361300,RL_myo,-0.15448537762902353,-0.10724251619683696,0.8551934515844523,0.4829880652621348,29.75,-0.25,14.6875,0.15283203125,0.88427734375,-0.50048828125
1969/12/31/18:00:38.581,81,1730344460,850421430,RL_myo,-0.15375504503907178,-0.106389457524058,0.8572805111448047,0.47969864984599647,15.1875,-2.375,9.9375,0.111328125,0.9111328125,-0.6328125
1969/12/31/18:00:38.597,82,1730344460,866820439,RL_myo,-0.1539375764438428,-0.1043748040122804,0.8586200982694435,0.47768258257316165,12.8125,-4.5,14.0625,0.1591796875,0.91748046875,-0.509765625
1969/12/31/18:00:38.620,83,1730344460,889337486,RL_myo,-0.15472374932207758,-0.10217260606120626,0.8585184449563484,0.4780872301537805,-4.375,-2.0625,13.125,0.1748046875,0.939453125,-0.54296875
1969/12/31/18:00:38.641,84,1730344460,910480716,RL_myo,-0.15546415114699,-0.10065189840651217,0.8580742194049412,0.47896631097386355,-4.0,-1.25,8.0,0.18310546875,0.90087890625,-0.466796875
1969/12/31/18:00:38.657,85,1730344460,926654227,RL_myo,-0.15650275874594052,-0.09924862937632578,0.8569197465032211,0.48098351751872515,-13.5,1.125,8.0,0.17138671875,0.904296875,-0.49072265625
1969/12/31/18:00:38.680,86,1730344460,949388720,RL_myo,-0.15699202496333142,-0.09815053504705946,0.8566808205133579,0.4814747639621922,-4.6875,1.25,10.0,0.115234375,0.87744140625,-0.50146484375
1969/12/31/18:00:38.701,87,1730344460,970531356,RL_myo,-0.15796254487018752,-0.09686497631722858,0.856281507721739,0.48212756643338917,-4.0,1.3125,8.5,0.173828125,0.873046875,-0.4609375
1969/12/31/18:00:38.717,88,1730344460,986968412,RL_myo,-0.15942872149271858,-0.09613332172704127,0.8562274521821809,0.4818873492285656,0.25,4.6875,7.1875,0.197265625,0.892578125,-0.49462890625
1969/12/31/18:00:38.740,89,1730344461,9465591,RL_myo,-0.16058876846749187,-0.09546211854167894,0.8568396547877807,0.4805455621986178,6.5625,5.25,9.6875,0.1650390625,0.89208984375,-0.513671875
1969/12/31/18:00:38.761,90,1730344461,30495523,RL_myo,-0.16114168967445747,-0.09497593527782416,0.8577743049224056,0.4787861415933501,8.375,2.9375,8.0,0.15673828125,0.8720703125,-0.53759765625
1969/12/31/18:00:38.778,91,1730344461,47397700,RL_myo,-0.16107493484249188,-0.09454531037173927,0.8583542283781598,0.4778536054876351,4.3125,-0.75,4.0625,0.171875,0.86962890625,-0.52734375
1969/12/31/18:00:38.800,92,1730344461,69352572,RL_myo,-0.1615032380258447,-0.09399659356001543,0.8586039490965826,0.4773684144369355,-0.0625,1.4375,5.25,0.1826171875,0.87548828125,-0.54345703125
1969/12/31/18:00:38.821,93,1730344461,90509167,RL_myo,-0.16223412178357968,-0.09308014887884086,0.8588398523765047,0.4768755430756614,-0.75,1.875,6.9375,0.193359375,0.8701171875,-0.546875
1969/12/31/18:00:38.837,94,1730344461,106990554,RL_myo,-0.16186996115824676,-0.09308133135985154,0.858972836870289,0.47675952737822974,-1.625,-0.0625,1.4375,0.1611328125,0.88037109375,-0.55859375
1969/12/31/18:00:38.860,95,1730344461,129402830,RL_myo,-0.16083496996788038,-0.0932659711995906,0.8591089951794749,0.47682838155183366,-1.375,-2.1875,-0.0625,0.130859375,0.86767578125,-0.54052734375
1969/12/31/18:00:38.881,96,1730344461,151174187,RL_myo,-0.16125651049137224,-0.09259126662203318,0.8587733166592003,0.47742181115197335,-5.0625,0.0,3.25,0.1982421875,0.87158203125,-0.50927734375
1969/12/31/18:00:38.897,97,1730344461,167000024,RL_myo,-0.16254768645382178,-0.0921083210134499,0.8580906406938891,0.4783040447060261,-6.5625,3.5,2.125,0.24462890625,0.9013671875,-0.50390625
1969/12/31/18:00:38.919,98,1730344461,189408275,RL_myo,-0.16235730733664688,-0.09289767735578067,0.8577470827074807,0.4788319834796973,-2.5625,2.125,-3.375,0.17333984375,0.9052734375,-0.5205078125
1969/12/31/18:00:38.942,99,1730344461,211928368,RL_myo,-0.1615054513433068,-0.09387580656311635,0.8574560016896349,0.4794502344299603,-3.5625,0.625,-4.3125,0.13330078125,0.8740234375,-0.513671875
1969/12/31/18:00:38.957,100,1730344461,226865229,RL_myo,-0.1624164963266697,-0.09375112302058049,0.8570659306347599,0.4798641466066431,-4.9375,3.8125,1.25,0.2109375,0.86328125,-0.51220703125
1969/12/31/18:00:38.979,101,1730344461,249336053,RL_myo,-0.16339585905639686,-0.09381375994384833,0.8571415945943149,0.47938404072803176,0.5,5.5625,2.8125,0.201171875,0.90966796875,-0.55078125
1969/12/31/18:00:39.001,102,1730344461,270485885,RL_myo,-0.1622426597563517,-0.09509934683987807,0.8574811453187466,0.47891493922059264,1.875,0.75,-4.8125,0.134765625,0.91796875,-0.57470703125
1969/12/31/18:00:39.017,103,1730344461,286904113,RL_myo,-0.16107856181477495,-0.09625649563543012,0.8578852543791823,0.47835266727638925,3.25,-0.1875,-5.25,0.1337890625,0.8564453125,-0.5341796875
1969/12/31/18:00:39.040,104,1730344461,310064440,RL_myo,-0.16211728400990452,-0.0963181755149207,0.8576468213942653,0.47841689460453,-3.6875,4.1875,-0.3125,0.23388671875,0.853515625,-0.52685546875
1969/12/31/18:00:39.062,105,1730344461,331915546,RL_myo,-0.16272172638130952,-0.09649776797031147,0.8572493049607999,0.4788877213757519,-8.125,4.0625,-0.6875,0.2080078125,0.8994140625,-0.5869140625
1969/12/31/18:00:39.077,106,1730344461,346948822,RL_myo,-0.1602875947162588,-0.09802813294528243,0.8570442183590974,0.4797640877645827,-8.375,-2.8125,-8.125,0.08447265625,0.94287109375,-0.64306640625
1969/12/31/18:00:39.100,107,1730344461,369377573,RL_myo,-0.1571686275902803,-0.09985548533502858,0.8559128794945634,0.482431391251874,-16.4375,-8.875,-18.9375,0.16357421875,0.96044921875,-0.60595703125
1969/12/31/18:00:39.121,108,1730344461,390544775,RL_myo,-0.15528290248901452,-0.1004089522776843,0.8536897304289925,0.48684608107404864,-24.9375,-11.0625,-17.6875,0.267578125,1.0166015625,-0.541015625
1969/12/31/18:00:39.143,109,1730344461,412947255,RL_myo,-0.15326060221629081,-0.10144130660433107,0.8508984689356074,0.49213071910392386,-30.8125,-8.9375,-19.25,0.22900390625,1.01708984375,-0.5361328125
1969/12/31/18:00:39.160,110,1730344461,429309792,RL_myo,-0.14959753856989136,-0.10363795205698716,0.8486959501486492,0.49658326144619996,-22.9375,-11.625,-24.625,0.1416015625,0.98046875,-0.50244140625
1969/12/31/18:00:39.182,111,1730344461,451868387,RL_myo,-0.1449043380194177,-0.10669451678936064,0.8477575192719851,0.49892504590173564,-9.3125,-13.625,-28.4375,0.119140625,0.9931640625,-0.53369140625
1969/12/31/18:00:39.196,112,1730344461,466307865,RL_myo,-0.1401454417140751,-0.10925973025618223,0.847831091205794,0.4996038503613696,3.375,-16.25,-26.75,0.142578125,0.97509765625,-0.48583984375
1969/12/31/18:00:39.220,113,1730344461,489774119,RL_myo,-0.1355659477336166,-0.11157791645972588,0.84849267872355,0.4992318264355022,10.375,-16.3125,-23.875,0.142578125,1.01806640625,-0.50830078125
1969/12/31/18:00:39.242,114,1730344461,511890394,RL_myo,-0.13024970250179554,-0.11413633724384145,0.8498579464081543,0.49774429423718025,17.5625,-18.25,-24.4375,0.1005859375,0.97119140625,-0.50390625
1969/12/31/18:00:39.247,115,1730344461,517307238,RL_myo,-0.12561506837924477,-0.11609322646128452,0.8513503273827532,0.4959292665604294,18.375,-18.375,-22.8125,0.14453125,0.951171875,-0.5068359375
1969/12/31/18:00:39.270,116,1730344461,539774389,RL_myo,-0.12140482802509817,-0.11810876934568373,0.8528857023603301,0.49385945879892873,21.0,-16.0625,-21.5,0.13671875,0.9609375,-0.49658203125
1969/12/31/18:00:39.285,117,1730344461,554867872,RL_myo,-0.11609389924180614,-0.12079380998923994,0.8548344158157177,0.49111015420587395,24.375,-17.875,-24.5625,0.0810546875,0.94384765625,-0.52978515625
1969/12/31/18:00:39.307,118,1730344461,577342691,RL_myo,-0.1103525844879276,-0.12329215744779523,0.8565753156546327,0.4887740578425466,21.625,-20.9375,-26.6875,0.0830078125,0.83935546875,-0.48974609375
1969/12/31/18:00:39.330,119,1730344461,599934717,RL_myo,-0.1065692310681848,-0.1251852765869685,0.8576808905899959,0.48719106665879214,16.5625,-16.9375,-25.0625,0.17236328125,0.85498046875,-0.46875
1969/12/31/18:00:39.345,120,1730344461,614884831,RL_myo,-0.1026626652939997,-0.1277484889776108,0.8584722873722388,0.4859691682941888,14.3125,-13.0,-23.5625,0.076171875,0.8759765625,-0.48779296875
1969/12/31/18:00:39.367,121,1730344461,637290011,RL_myo,-0.09649918942927117,-0.13104602131856116,0.8590320000174335,0.485364677002887,12.125,-18.4375,-28.4375,-0.03173828125,0.8935546875,-0.51171875
1969/12/31/18:00:39.390,122,1730344461,659748837,RL_myo,-0.0900316577689965,-0.13446762173905039,0.8587494190861098,0.4861709519525812,1.8125,-21.3125,-33.25,-0.01416015625,0.86181640625,-0.51318359375
1969/12/31/18:00:39.412,123,1730344461,682223209,RL_myo,-0.08575649505801712,-0.13617276902095102,0.8590298302110555,0.4859738175458593,6.0625,-18.75,-24.125,0.083984375,0.77392578125,-0.45751953125
1969/12/31/18:00:39.427,124,1730344461,697171638,RL_myo,-0.0824606207990334,-0.13727160338788016,0.8597633638602401,0.48493681143473005,12.25,-14.875,-16.5625,0.060546875,0.79833984375,-0.44970703125
1969/12/31/18:00:39.444,125,1730344461,713751463,RL_myo,-0.0767842969754131,-0.13940805587586924,0.8613513504904845,0.4824348833812918,22.875,-18.1875,-19.875,-0.07421875,0.85888671875,-0.51171875
1969/12/31/18:00:39.465,126,1730344461,734815339,RL_myo,-0.06988722647742966,-0.1421548912366233,0.8625121374258153,0.4806043854002455,20.1875,-22.1875,-25.5625,-0.103515625,0.87255859375,-0.52490234375
1969/12/31/18:00:39.496,127,1730344461,765524991,RL_myo,-0.06549474295229409,-0.14417388895929042,0.8633952833739048,0.4790333109875154,15.1875,-16.125,-22.0,-0.00634765625,0.837890625,-0.515625
1969/12/31/18:00:39.504,128,1730344461,773801790,RL_myo,-0.06396714120463816,-0.14441436649825753,0.8639836677019591,0.47810555062588805,7.25,-8.8125,-8.5625,0.041015625,0.84521484375,-0.53955078125
1969/12/31/18:00:39.525,129,1730344461,794906733,RL_myo,-0.06122115230263153,-0.1438666560092747,0.8652141913158544,0.47640188805786554,11.75,-11.875,0.625,-0.09326171875,0.830078125,-0.568359375
1969/12/31/18:00:39.547,130,1730344461,817333099,RL_myo,-0.0571297283982068,-0.1442281497916268,0.8659792590958953,0.4754096736043085,8.75,-15.625,-6.9375,-0.1240234375,0.86572265625,-0.58447265625
1969/12/31/18:00:39.570,131,1730344461,839837623,RL_myo,-0.054140363084299536,-0.14472018136738918,0.8665509974157841,0.4745674441718477,9.8125,-13.25,-10.625,-0.03662109375,0.865234375,-0.53271484375
1969/12/31/18:00:39.593,132,1730344461,862494648,RL_myo,-0.05243080135516441,-0.14471877766367267,0.8667257034264665,0.4744407670939383,4.4375,-10.5,-7.3125,0.005859375,0.845703125,-0.521484375
1969/12/31/18:00:39.608,133,1730344461,877292660,RL_myo,-0.04999007523937893,-0.14435473497085613,0.8672270927974308,0.4738985887161636,4.4375,-10.25,-0.375,-0.1240234375,0.86376953125,-0.5849609375
1969/12/31/18:00:39.622,134,1730344461,892208444,RL_myo,-0.047426791295830294,-0.14356217905764845,0.8686976753182197,0.4717043026179878,12.25,-11.3125,2.5625,-0.1142578125,0.80810546875,-0.61474609375
1969/12/31/18:00:39.645,135,1730344461,914733599,RL_myo,-0.045472727289217064,-0.14227775478008722,0.8706348752394526,0.46870479577704405,22.25,-12.1875,2.125,-0.03076171875,0.85546875,-0.556640625
1969/12/31/18:00:39.668,136,1730344461,937425359,RL_myo,-0.042482902876158066,-0.1423421400965526,0.8722423593395097,0.46596908125946934,21.5625,-12.1875,-5.3125,-0.08447265625,0.92333984375,-0.60693359375
1969/12/31/18:00:39.684,137,1730344461,953660896,RL_myo,-0.039490203395515754,-0.14190838159903266,0.8736673437456144,0.46368945161628006,17.75,-14.0,-3.625,-0.07666015625,0.87255859375,-0.60107421875
1969/12/31/18:00:39.705,138,1730344461,974809244,RL_myo,-0.039003507007436475,-0.14032717153379728,0.875289969462659,0.4611447502991903,14.9375,-8.5625,3.5625,0.02587890625,0.80029296875,-0.5966796875
1969/12/31/18:00:39.728,139,1730344461,997356103,RL_myo,-0.03912529057267281,-0.1388001727960343,0.8774807757765123,0.4574179836998597,22.875,-3.375,7.625,-0.0048828125,0.7861328125,-0.57958984375
1969/12/31/18:00:39.744,140,1730344462,13765397,RL_myo,-0.037232172527115685,-0.1375759293051127,0.8805713984404885,0.4519741599398224,34.9375,-6.125,8.75,-0.12939453125,0.80126953125,-0.609375
1969/12/31/18:00:39.765,141,1730344462,34847458,RL_myo,-0.034119849833645514,-0.13678458582683292,0.8829655593801717,0.44776962143045346,31.625,-11.875,2.625,-0.140625,0.89306640625,-0.6298828125
1969/12/31/18:00:39.787,142,1730344462,57258645,RL_myo,-0.03216724860160523,-0.13562737455932986,0.8844467404881591,0.4453363297861704,20.0625,-13.1875,-0.1875,-0.0224609375,0.85302734375,-0.6025390625
1969/12/31/18:00:39.804,143,1730344462,73813983,RL_myo,-0.03222851216243589,-0.13336988461159552,0.8852464240375147,0.4444238580581359,7.0,-9.6875,5.9375,0.05224609375,0.80078125,-0.5908203125
1969/12/31/18:00:39.825,144,1730344462,94743754,RL_myo,-0.03210611592083595,-0.13123222287033706,0.886580482414719,0.44240518668102463,10.625,-5.0,11.75,-0.0517578125,0.7490234375,-0.6240234375
1969/12/31/18:00:39.848,145,1730344462,117383825,RL_myo,-0.030579916429212494,-0.12994938538481718,0.8880993693513808,0.4398380794189725,15.75,-6.5,8.25,-0.1279296875,0.74267578125,-0.61083984375
1969/12/31/18:00:39.864,146,1730344462,133752675,RL_myo,-0.028077148814247218,-0.129643182785785,0.8893131700512651,0.4376372978220707,17.4375,-9.9375,-0.5,-0.1220703125,0.83203125,-0.6240234375
1969/12/31/18:00:39.885,147,1730344462,154787840,RL_myo,-0.025818511237322556,-0.12890944617783745,0.889670495969772,0.4372667009555054,6.5,-12.75,-1.1875,-0.07666015625,0.83056640625,-0.61474609375
1969/12/31/18:00:39.908,148,1730344462,177275539,RL_myo,-0.025513394186485183,-0.12665141850946593,0.8896728078043254,0.43793924231586406,-3.625,-9.25,8.6875,-0.02978515625,0.78125,-0.611328125
1969/12/31/18:00:39.924,149,1730344462,193739858,RL_myo,-0.026672772563968283,-0.12390326843216387,0.8900283055555732,0.4379339660102344,-1.375,-2.8125,14.5,-0.01171875,0.73291015625,-0.59326171875
1969/12/31/18:00:39.945,150,1730344462,214741440,RL_myo,-0.026795991424470738,-0.12232156449803953,0.8910430132447011,0.43630466219161007,12.3125,-0.9375,11.1875,-0.0908203125,0.7724609375,-0.57080078125
1969/12/31/18:00:39.970,151,1730344462,240282655,RL_myo,-0.02545352769230271,-0.12189615060318587,0.8919721826561618,0.43460219944651146,13.75,-3.875,3.4375,-0.13427734375,0.82958984375,-0.62646484375
1969/12/31/18:00:39.985,152,1730344462,254379939,RL_myo,-0.025086913437184357,-0.1211008181493279,0.8925691853818658,0.4336190585346902,7.875,-2.5,4.25,-0.0732421875,0.82470703125,-0.63720703125
1969/12/31/18:00:40.005,153,1730344462,274731188,RL_myo,-0.02703926880535796,-0.11914368557123868,0.8927231276459717,0.43372696192070803,-0.1875,2.375,11.6875,0.00048828125,0.80078125,-0.60595703125
1969/12/31/18:00:40.028,154,1730344462,297344046,RL_myo,-0.029360048618971755,-0.11676875885258413,0.8931314581970784,0.4333811750409552,-0.125,6.1875,18.25,-0.046875,0.74755859375,-0.611328125
1969/12/31/18:00:40.044,155,1730344462,313619396,RL_myo,-0.030762427151698454,-0.11474873620077995,0.8941245939389497,0.43177263823633905,8.375,5.4375,18.0625,-0.10595703125,0.77099609375,-0.63623046875
1969/12/31/18:00:40.065,156,1730344462,334709351,RL_myo,-0.031433325907005025,-0.11377032910807255,0.8949647723775043,0.43023983362811347,10.875,4.0,9.8125,-0.083984375,0.82080078125,-0.63623046875
1969/12/31/18:00:40.088,157,1730344462,357343549,RL_myo,-0.03296012225272269,-0.11261375103013586,0.895050430951714,0.4302516699248931,2.125,3.875,8.1875,-0.0166015625,0.84375,-0.62451171875
1969/12/31/18:00:40.105,158,1730344462,375280306,RL_myo,-0.035707727873985455,-0.11072447583488823,0.8946464400837689,0.4313615604879576,-8.125,7.0625,13.8125,0.00927734375,0.79296875,-0.62109375
1969/12/31/18:00:40.125,159,1730344462,394915198,RL_myo,-0.03973533813694917,-0.10864654667245702,0.8944418510888681,0.4319615791016732,-8.4375,13.5625,18.4375,0.00927734375,0.75146484375,-0.62890625
1969/12/31/18:00:40.148,160,1730344462,417349567,RL_myo,-0.04339841137419998,-0.10712266098694932,0.8950693451353988,0.43068803186547827,3.875,15.625,17.875,-0.015625,0.74267578125,-0.6279296875
1969/12/31/18:00:40.165,161,1730344462,435121362,RL_myo,-0.0453514736629077,-0.1068170644819495,0.8958594602294702,0.4289162926369481,10.875,12.125,9.5625,-0.05322265625,0.83447265625,-0.6513671875
1969/12/31/18:00:40.185,162,1730344462,454766492,RL_myo,-0.04663213891435959,-0.10669238065746148,0.8959596428323094,0.428600627561038,2.3125,7.375,5.1875,-0.03271484375,0.86865234375,-0.67431640625
1969/12/31/18:00:40.207,163,1730344462,477256979,RL_myo,-0.04986847312415206,-0.10498625920874118,0.8951909753229059,0.4302605471874515,-11.0,8.25,11.625,0.072265625,0.8310546875,-0.63330078125
1969/12/31/18:00:40.225,164,1730344462,495107701,RL_myo,-0.054139399666996636,-0.10266343882738256,0.8943071972049996,0.4321386129000408,-16.375,12.75,18.25,0.06494140625,0.7890625,-0.646484375
1969/12/31/18:00:40.247,165,1730344462,516386209,RL_myo,-0.05688566955831416,-0.10107582488043804,0.8939351033809756,0.4329292426793158,-7.0625,11.5625,16.375,-0.021484375,0.8056640625,-0.63427734375
1969/12/31/18:00:40.269,166,1730344462,538769864,RL_myo,-0.058230134617868655,-0.1006514591036325,0.893594518664148,0.4335520400322024,-4.25,7.4375,7.75,-0.0302734375,0.8447265625,-0.65380859375
1969/12/31/18:00:40.285,167,1730344462,555155516,RL_myo,-0.06030408880648909,-0.09979472186094096,0.8929643919422423,0.43476318276176296,-8.3125,5.8125,6.125,0.06982421875,0.84521484375,-0.6396484375
1969/12/31/18:00:40.305,168,1730344462,574773792,RL_myo,-0.06415110397141667,-0.09808831977361235,0.8921947542818244,0.43617867647929925,-12.3125,10.625,11.75,0.13134765625,0.81396484375,-0.63232421875
1969/12/31/18:00:40.328,169,1730344462,597288730,RL_myo,-0.06781184576908,-0.09625497819787504,0.8913809141418942,0.4376946408731528,-13.0625,11.9375,15.125,0.078125,0.81640625,-0.63623046875
1969/12/31/18:00:40.345,170,1730344462,615205796,RL_myo,-0.06995042741530798,-0.095037360807709,0.8907387323486817,0.4389297762159508,-10.875,9.1875,12.9375,0.00048828125,0.84912109375,-0.66796875
1969/12/31/18:00:40.365,171,1730344462,634874829,RL_myo,-0.07184217805669717,-0.09406014986012773,0.8899396398187296,0.4404529794877883,-9.75,6.9375,9.375,0.04443359375,0.88720703125,-0.64501953125
1969/12/31/18:00:40.388,172,1730344462,657442865,RL_myo,-0.07483337448491605,-0.09259561916282026,0.8890888521592881,0.4419808031364414,-10.25,8.5,10.6875,0.1083984375,0.8876953125,-0.62744140625
1969/12/31/18:00:40.405,173,1730344462,675193449,RL_myo,-0.0779443352347897,-0.09118937888862633,0.8885776290901085,0.44276288785682427,-7.4375,11.6875,13.75,0.072265625,0.869140625,-0.64453125
1969/12/31/18:00:40.425,174,1730344462,694820848,RL_myo,-0.08099733031867139,-0.08984782986366563,0.8885901543174214,0.4424639393218153,0.3125,12.375,14.6875,0.07177734375,0.859375,-0.6201171875
1969/12/31/18:00:40.457,175,1730344462,726371291,RL_myo,-0.0835586854781903,-0.08899091557867163,0.8886273936281757,0.44208587210995787,2.0625,10.9375,11.0625,0.07275390625,0.87939453125,-0.62353515625
1969/12/31/18:00:40.465,176,1730344462,735274913,RL_myo,-0.08489965865353825,-0.08825658261180182,0.8886693242239518,0.44189326286960245,1.6875,6.125,9.3125,0.048828125,0.91064453125,-0.64794921875
1969/12/31/18:00:40.485,177,1730344462,754876675,RL_myo,-0.08588171592636278,-0.08752976591215653,0.8881768645661015,0.44283713507161476,-5.25,3.375,6.0625,0.07275390625,0.90087890625,-0.63427734375
1969/12/31/18:00:40.507,178,1730344462,777167279,RL_myo,-0.08795583498436924,-0.08655195975561109,0.8873101826285743,0.44435702892866624,-10.1875,5.1875,6.0625,0.13623046875,0.86181640625,-0.60888671875
1969/12/31/18:00:40.530,179,1730344462,799788358,RL_myo,-0.0900893641285149,-0.08563372484573605,0.886794289582109,0.44513667519597505,-7.1875,6.9375,7.25,0.12744140625,0.84375,-0.62255859375
1969/12/31/18:00:40.548,180,1730344462,817720517,RL_myo,-0.09118816455448835,-0.08508453908230038,0.8867957448541909,0.44501533317722525,-0.875,5.0625,7.0,0.06884765625,0.869140625,-0.64697265625
1969/12/31/18:00:40.568,181,1730344462,837403304,RL_myo,-0.09161770995411277,-0.08496459177623249,0.8866348133200813,0.4452706156663908,-0.75,2.6875,2.625,0.07275390625,0.896484375,-0.6337890625
1969/12/31/18:00:40.585,182,1730344462,855335666,RL_myo,-0.09320537635078088,-0.08472106245899402,0.8860919767415103,0.44606738072790225,-4.75,5.0625,2.0,0.142578125,0.86572265625,-0.595703125
1969/12/31/18:00:40.608,183,1730344462,877820994,RL_myo,-0.09540321770551594,-0.08411109020998142,0.8856690268119234,0.4465578635531379,-3.875,7.9375,5.9375,0.13525390625,0.8330078125,-0.58251953125
1969/12/31/18:00:40.628,184,1730344462,897355122,RL_myo,-0.09686498209109189,-0.08380316346003099,0.8857622054857753,0.4461160391328233,0.125,8.0,7.25,0.07470703125,0.82763671875,-0.61962890625
1969/12/31/18:00:40.650,185,1730344462,919801141,RL_myo,-0.09796447915057846,-0.08374284448261286,0.8860749805787834,0.4452653429305108,4.375,5.75,4.0,0.09619140625,0.84130859375,-0.62109375
1969/12/31/18:00:40.666,186,1730344462,936182990,RL_myo,-0.09942694920702055,-0.08392391354183748,0.8859923847078639,0.445071401852421,0.25,7.0625,1.5625,0.13330078125,0.86376953125,-0.6201171875
1969/12/31/18:00:40.687,187,1730344462,957098844,RL_myo,-0.10095801761619932,-0.08374510288357041,0.8857326442736809,0.44527735097350307,-0.75,6.9375,4.1875,0.11669921875,0.86376953125,-0.5927734375
1969/12/31/18:00:40.705,188,1730344462,975203109,RL_myo,-0.10211701510694723,-0.08337826816263594,0.8854210526846243,0.4457014012617625,-3.625,5.9375,5.6875,0.08740234375,0.85302734375,-0.61279296875
1969/12/31/18:00:40.726,189,1730344462,996287917,RL_myo,-0.10382522446807338,-0.08264512282761396,0.8851085126464033,0.4460639273443152,-5.5625,5.875,6.3125,0.13427734375,0.8115234375,-0.61572265625
1969/12/31/18:00:40.748,190,1730344463,17386387,RL_myo,-0.10650678073014139,-0.08166537112718004,0.8851354350421263,0.4455584523381273,-0.4375,9.25,8.9375,0.17041015625,0.80029296875,-0.59423828125
1969/12/31/18:00:40.770,191,1730344463,39792333,RL_myo,-0.10821698935124975,-0.08130007321819778,0.8855726443865102,0.44434274251387373,6.375,9.0625,8.375,0.10107421875,0.8369140625,-0.60546875
1969/12/31/18:00:40.786,192,1730344463,56262934,RL_myo,-0.10827948893250754,-0.08172843048513392,0.8859508353186848,0.4434942314450957,5.5625,4.375,3.0,0.05810546875,0.87939453125,-0.6318359375
1969/12/31/18:00:40.803,193,1730344463,72745821,RL_myo,-0.10889038201844568,-0.08185089814278905,0.8858330236736,0.4435574025381417,-1.375,2.875,0.125,0.1416015625,0.876953125,-0.64599609375
1969/12/31/18:00:40.825,194,1730344463,95261987,RL_myo,-0.11126907391164709,-0.0808119878546466,0.8854528004587298,0.44391660699912744,-4.3125,6.3125,6.3125,0.2109375,0.8427734375,-0.603515625
1969/12/31/18:00:40.846,195,1730344463,116286414,RL_myo,-0.11371019856895953,-0.07977414360151912,0.8850230162372051,0.4443425902211623,-5.25,8.8125,9.3125,0.1611328125,0.8349609375,-0.6083984375
1969/12/31/18:00:40.863,196,1730344463,132614555,RL_myo,-0.11444471330840592,-0.07953144610178822,0.8854663765146904,0.4433130414714411,3.6875,6.25,7.75,0.0732421875,0.83837890625,-0.64501953125
1969/12/31/18:00:40.886,197,1730344463,156276353,RL_myo,-0.11450638420164676,-0.07971499880988842,0.8858375020887524,0.4425220071758737,5.125,2.3125,1.875,0.11083984375,0.87451171875,-0.630859375
1969/12/31/18:00:40.906,198,1730344463,176145272,RL_myo,-0.11536205721789664,-0.0797157919188217,0.8856632011807831,0.4426484862138552,-0.5625,3.0625,0.25,0.1728515625,0.8720703125,-0.615234375
1969/12/31/18:00:40.923,199,1730344463,192778212,RL_myo,-0.11719054794479246,-0.07867636265668619,0.8853990044203955,0.4428826124413615,-3.125,4.875,7.5625,0.18408203125,0.83740234375,-0.59619140625
1969/12/31/18:00:40.950,200,1730344463,219904546,RL_myo,-0.11846931286647981,-0.07775883801746279,0.8853154987780988,0.44287137257041603,-3.125,5.0625,8.6875,0.12548828125,0.81640625,-0.62255859375
1969/12/31/18:00:40.967,201,1730344463,236417621,RL_myo,-0.11883526350798423,-0.07757556236191472,0.8853745929362195,0.4426872964681097,1.0,3.3125,4.625,0.10498046875,0.85595703125,-0.61572265625
1969/12/31/18:00:40.983,202,1730344463,252799504,RL_myo,-0.11932458016927204,-0.07775934278038495,0.8852602101151518,0.4427521762393347,0.625,2.8125,-0.125,0.1572265625,0.8681640625,-0.6025390625
1969/12/31/18:00:41.005,203,1730344463,275306800,RL_myo,-0.1202442735553243,-0.07763995734130584,0.8848635704220996,0.4433168318945789,-3.0625,3.75,2.1875,0.15771484375,0.8671875,-0.6025390625
1969/12/31/18:00:41.033,204,1730344463,302446248,RL_myo,-0.12103813616224403,-0.07739604470687111,0.8843779903453121,0.44411168871229834,-4.8125,4.0,3.75,0.13671875,0.86181640625,-0.59814453125
1969/12/31/18:00:41.050,205,1730344463,320163158,RL_myo,-0.12189286462383397,-0.07739617042715147,0.8837690470147682,0.4450890179454168,-6.875,4.8125,2.0,0.13671875,0.8388671875,-0.59619140625
1969/12/31/18:00:41.078,206,1730344463,347908337,RL_myo,-0.12311054336556829,-0.0771500876619129,0.8833196745594964,0.4456882437557658,-4.3125,4.9375,2.9375,0.1650390625,0.830078125,-0.5791015625
1969/12/31/18:00:41.087,207,1730344463,356848143,RL_myo,-0.12427445278462664,-0.07727478252717943,0.8829223769791867,0.4461306362489372,-2.75,6.5,2.125,0.15087890625,0.84423828125,-0.5771484375
1969/12/31/18:00:41.108,208,1730344463,378014691,RL_myo,-0.12469907808652037,-0.07788351622046011,0.8826595047524087,0.446426361784048,-1.625,5.6875,0.75,0.10888671875,0.85107421875,-0.59716796875
1969/12/31/18:00:41.125,209,1730344463,394393860,RL_myo,-0.12524964838980562,-0.07825051132345555,0.8824850957211547,0.44655283997067147,-2.625,4.9375,0.4375,0.1357421875,0.84765625,-0.62255859375
1969/12/31/18:00:41.155,210,1730344463,424921102,RL_myo,-0.12683355726511616,-0.07769928700601197,0.8821585193227739,0.44684719573528175,-3.9375,5.375,4.5,0.19140625,0.83447265625,-0.5947265625
1969/12/31/18:00:41.163,211,1730344463,432657609,RL_myo,-0.12860811817770826,-0.07709162470737804,0.8818232004334843,0.4471070079030437,-2.9375,6.9375,6.6875,0.17431640625,0.8388671875,-0.58349609375
1969/12/31/18:00:41.185,212,1730344463,455055346,RL_myo,-0.12976803652961202,-0.07721381289273717,0.8815803158970774,0.44722972890520574,-2.1875,7.1875,3.125,0.14794921875,0.83935546875,-0.595703125
1969/12/31/18:00:41.207,213,1730344463,476833667,RL_myo,-0.1309256039148074,-0.07757876110756186,0.8815046954487871,0.4469781806378249,0.25,6.875,1.375,0.169921875,0.85205078125,-0.60546875
1969/12/31/18:00:41.221,214,1730344463,491162832,RL_myo,-0.13250699694443313,-0.07751445698730082,0.8813454794461605,0.4468372752787632,-1.4375,7.5625,3.3125,0.18896484375,0.84130859375,-0.6064453125
1969/12/31/18:00:41.245,215,1730344463,514416361,RL_myo,-0.13409755659863654,-0.07721138329416259,0.881125319552989,0.44684943643997177,-2.125,7.8125,6.0625,0.16650390625,0.8427734375,-0.59619140625
1969/12/31/18:00:41.267,216,1730344463,536712346,RL_myo,-0.13550597522912608,-0.07678671929650478,0.8810940326272231,0.4465593309803092,-0.9375,6.625,5.9375,0.16650390625,0.8212890625,-0.5986328125
1969/12/31/18:00:41.282,217,1730344463,551274071,RL_myo,-0.13690725438414872,-0.07666317945006276,0.8810161880431575,0.44630666253093865,-0.5625,6.625,3.8125,0.19189453125,0.826171875,-0.5908203125
1969/12/31/18:00:41.305,218,1730344463,574835699,RL_myo,-0.139106402418247,-0.07642001572077457,0.880844446378992,0.4460072323256388,-1.0625,9.5,4.6875,0.21923828125,0.82958984375,-0.59912109375
1969/12/31/18:00:41.327,219,1730344463,597053521,RL_myo,-0.1412435727335738,-0.0762983863081103,0.8805444167046393,0.4459488082936431,-3.0,10.125,5.0,0.22265625,0.9052734375,-0.65625
1969/12/31/18:00:41.341,220,1730344463,611217180,RL_myo,-0.14117976125949214,-0.0770293379634583,0.8805881606963653,0.4457569375175404,1.6875,1.625,-3.5625,0.2001953125,0.9189453125,-0.640625
1969/12/31/18:00:41.365,221,1730344463,634441303,RL_myo,-0.14044831473542904,-0.07739611607323948,0.8796178460027241,0.447835412956907,-10.0625,-1.6875,-3.75,0.158203125,0.90771484375,-0.58447265625
1969/12/31/18:00:41.388,222,1730344463,657536019,RL_myo,-0.14068821177878718,-0.07690548669903334,0.8792250284917265,0.4486153390776945,-6.6875,0.1875,2.6875,0.17578125,0.81396484375,-0.580078125
1969/12/31/18:00:41.402,223,1730344463,671312720,RL_myo,-0.14221833941293444,-0.07519870993851298,0.8796173773733039,0.44765206062423224,1.125,2.5625,11.1875,0.220703125,0.8017578125,-0.60546875
1969/12/31/18:00:41.425,224,1730344463,694470322,RL_myo,-0.14319269795759967,-0.07507545545091543,0.8799697896226405,0.44666844145512125,11.8125,2.8125,3.1875,0.224609375,0.9326171875,-0.53125
1969/12/31/18:00:41.447,225,1730344463,716880900,RL_myo,-0.14227572574713013,-0.0762343978799509,0.8800830928991289,0.4465419174457332,4.9375,1.4375,-2.75,0.103515625,0.87646484375,-0.56201171875
1969/12/31/18:00:41.462,226,1730344463,731334067,RL_myo,-0.142275525657804,-0.07544081926771588,0.8795935651027942,0.44763994215973163,-1.5625,-0.5,7.375,0.1298828125,0.90576171875,-0.5234375
1969/12/31/18:00:41.485,227,1730344463,754312603,RL_myo,-0.14337628315033368,-0.07422118361464698,0.8780805489147298,0.45045422292442,-17.625,2.25,6.625,0.193359375,0.91015625,-0.58154296875
1969/12/31/18:00:41.507,228,1730344463,776981068,RL_myo,-0.144349752396954,-0.0731819674942697,0.8765356423563029,0.4533131547789333,-20.0,2.8125,5.1875,0.18994140625,0.87060546875,-0.59130859375
1969/12/31/18:00:41.528,229,1730344463,798121042,RL_myo,-0.1447797391719275,-0.0725729805545623,0.8759418367859744,0.4544203870720911,-10.1875,1.625,3.8125,0.17724609375,0.84033203125,-0.60400390625
1969/12/31/18:00:41.545,230,1730344463,814494246,RL_myo,-0.14478006873359633,-0.07226796010985584,0.876187979203531,0.4539941615685032,2.5625,-0.625,2.0625,0.18603515625,0.8193359375,-0.546875
1969/12/31/18:00:41.567,231,1730344463,836925356,RL_myo,-0.14447270378386137,-0.07214479758028058,0.8766630521536125,0.45319384266800616,5.75,-2.875,-0.4375,0.208984375,0.82080078125,-0.54296875
1969/12/31/18:00:41.588,232,1730344463,857994464,RL_myo,-0.14393010148136887,-0.07184297262237963,0.8777416706115709,0.4513228033728759,11.625,-3.6875,1.8125,0.197265625,0.83349609375,-0.5703125
1969/12/31/18:00:41.605,233,1730344463,874515831,RL_myo,-0.1433199276845165,-0.07153788553929019,0.8790858596730864,0.44894295916508475,16.1875,-4.25,2.4375,0.19970703125,0.8642578125,-0.580078125
1969/12/31/18:00:41.627,234,1730344463,896737195,RL_myo,-0.14307097130425042,-0.07061992909514409,0.8792394802208735,0.4488668613359461,-1.75,-5.6875,0.5,0.26611328125,0.8828125,-0.6396484375
1969/12/31/18:00:41.648,235,1730344463,917971549,RL_myo,-0.14398565456789772,-0.07013120690907777,0.8783185965375363,0.4504510939851993,-10.0,-3.3125,-6.3125,0.376953125,0.888671875,-0.58642578125
1969/12/31/18:00:41.665,236,1730344463,934426989,RL_myo,-0.14465813405916927,-0.07123039765698336,0.8759446759000583,0.45466600869483204,-39.8125,1.375,-20.625,0.39404296875,0.79150390625,-0.7529296875
1969/12/31/18:00:41.688,237,1730344463,957265041,RL_myo,-0.14545413651541522,-0.07556534662445827,0.8686352567145925,0.4675529524582797,-92.125,6.25,-52.625,0.544921875,0.9931640625,-0.81591796875
1969/12/31/18:00:41.708,238,1730344463,977955572,RL_myo,-0.13885843004637458,-0.08954079862770616,0.8573821392797467,0.4874388669671857,-117.9375,1.9375,-115.125,0.626953125,1.0703125,-0.80810546875
1969/12/31/18:00:41.725,239,1730344463,994475698,RL_myo,-0.12653176642407118,-0.11115019134502346,0.8398217917167369,0.5160762591005895,-166.25,-5.75,-181.375,0.70263671875,1.13330078125,-0.533203125
1969/12/31/18:00:41.747,240,1730344464,16956801,RL_myo,-0.11542139441168409,-0.13617405125989804,0.814663855744446,0.5517765232583945,-222.5,9.75,-210.625,0.9794921875,0.884765625,-0.41943359375
1969/12/31/18:00:41.777,241,1730344464,47032055,RL_myo,-0.11059921889802493,-0.16510534609225025,0.7803592790349055,0.5929143556155707,-279.4375,53.125,-223.4375,1.14501953125,0.61328125,-0.2158203125
1969/12/31/18:00:41.784,242,1730344464,53841170,RL_myo,-0.10986890119884629,-0.19806921355014234,0.7446059587359588,0.6279007703514066,-256.0625,94.75,-222.5,0.93896484375,0.38427734375,-0.00439453125
1969/12/31/18:00:41.807,243,1730344464,76942230,RL_myo,-0.11200300243392682,-0.23395504541103077,0.710288250312592,0.6543783046834493,-213.5625,128.3125,-212.6875,0.630859375,0.22314453125,0.1552734375
1969/12/31/18:00:41.828,244,1730344464,97948639,RL_myo,-0.11243360199397522,-0.27150090210054384,0.6780197887888582,0.6737470677575996,-173.4375,137.625,-213.0,0.2890625,0.185546875,0.1923828125
1969/12/31/18:00:41.844,245,1730344464,113668056,RL_myo,-0.10803335726747516,-0.30890215883089933,0.647223570883789,0.6884837683486553,-142.5,125.0,-220.4375,-0.0244140625,0.193359375,0.16552734375
1969/12/31/18:00:41.867,246,1730344464,136968442,RL_myo,-0.09888021664223129,-0.3434561599048367,0.6194052089415821,0.6989976796215017,-108.0625,102.25,-217.375,-0.240234375,0.1669921875,0.19970703125
1969/12/31/18:00:41.888,247,1730344464,158144861,RL_myo,-0.08905575620427857,-0.3707502831972502,0.5941526599674075,0.7082343654820042,-95.3125,72.3125,-185.375,-0.4150390625,0.0634765625,0.2451171875
1969/12/31/18:00:41.904,248,1730344464,173774060,RL_myo,-0.08453610610161351,-0.38965956776368277,0.5721598979036282,0.716695276422488,-95.0625,56.375,-125.5625,-0.56298828125,0.02490234375,0.24365234375
1969/12/31/18:00:41.927,249,1730344464,196947332,RL_myo,-0.08270364743088643,-0.4009448413088509,0.5523749145752931,0.7261441280333991,-87.5,34.4375,-53.0,-0.7353515625,0.11279296875,0.25634765625
1969/12/31/18:00:41.948,250,1730344464,218014750,RL_myo,-0.08343737072304498,-0.4005848310573111,0.5408475069326274,0.7348836455782455,-67.1875,-11.75,12.0,-0.84423828125,0.3642578125,0.2119140625
1969/12/31/18:00:41.971,251,1730344464,240482442,RL_myo,-0.08459614709144295,-0.38764078656403617,0.533334150999299,0.7470828574309247,-69.875,-74.0,49.3125,-0.80615234375,0.62109375,0.240234375
1969/12/31/18:00:41.987,252,1730344464,256782444,RL_myo,-0.0905784596864598,-0.35901785705913514,0.5206430331034381,0.7693065403558891,-149.4375,-148.8125,80.25,-0.90234375,0.94580078125,0.22412109375
1969/12/31/18:00:42.010,253,1730344464,279428933,RL_myo,-0.09949183247939478,-0.3153219672322414,0.4991682245499942,0.8009397704261462,-233.5,-223.625,115.625,-0.94970703125,1.13330078125,0.20654296875
1969/12/31/18:00:42.024,254,1730344464,293834420,RL_myo,-0.10303029496701106,-0.2610548409798023,0.4708386820945043,0.8363887037517491,-271.8125,-291.4375,106.5,-0.869140625,1.08056640625,0.39013671875
1969/12/31/18:00:42.047,255,1730344464,316644124,RL_myo,-0.10003744804864649,-0.20251632252923066,0.4407995422863483,0.8687205601442254,-266.0625,-325.5625,86.6875,-0.80712890625,1.00927734375,0.3896484375
1969/12/31/18:00:42.070,256,1730344464,339822322,RL_myo,-0.10144230750013679,-0.1383692605913418,0.4096755523110217,0.8959516436790059,-271.625,-336.0,122.1875,-0.62255859375,1.205078125,0.3544921875
1969/12/31/18:00:42.085,257,1730344464,355044602,RL_myo,-0.10601858398949156,-0.0720828714401782,0.3674944698910355,0.9211470751694915,-329.3125,-331.25,134.9375,-0.42529296875,1.22119140625,0.40966796875
1969/12/31/18:00:42.109,258,1730344464,378486302,RL_myo,-0.10815832495283065,-0.0119022987391659,0.3230711139815647,0.9400984881058113,-318.625,-298.5625,111.75,-0.24658203125,0.8662109375,0.580078125
1969/12/31/18:00:42.130,259,1730344464,399421759,RL_myo,-0.10230119804966856,0.03991944124372508,0.29738152559545655,0.9484224434938843,-186.6875,-280.0625,61.375,-0.2080078125,0.64697265625,0.87255859375
1969/12/31/18:00:42.151,260,1730344464,420449901,RL_myo,-0.08514750590259115,0.0824008121637979,0.30128178432630104,0.9461444365563194,-7.0,-270.8125,-14.75,-0.33251953125,0.76318359375,0.82080078125
1969/12/31/18:00:42.167,261,1730344464,436960224,RL_myo,-0.0805686229756136,0.12805528106275554,0.32685225457152334,0.9328869951206653,135.8125,-274.6875,48.9375,0.27392578125,0.697265625,0.72412109375
1969/12/31/18:00:42.190,262,1730344464,459411389,RL_myo,-0.09973618672688356,0.1642534140036987,0.3632374829936867,0.9116644338756015,236.0625,-192.25,153.5625,0.39501953125,0.61669921875,1.0380859375
1969/12/31/18:00:42.211,263,1730344464,480507913,RL_myo,-0.11755520756348678,0.19275147740679713,0.3809252598150161,0.8966178603881728,121.75,-140.4375,150.0,0.30078125,1.20703125,0.998046875
1969/12/31/18:00:42.233,264,1730344464,502994046,RL_myo,-0.1317164742073159,0.21704531152975687,0.38166038610674063,0.8887505008956101,11.375,-106.5625,140.0,0.140625,1.36767578125,0.52685546875
1969/12/31/18:00:42.250,265,1730344464,519507115,RL_myo,-0.1517973413668769,0.2426193936201591,0.369086659929837,0.8842332466352818,-54.1875,-84.125,183.9375,0.3935546875,1.13134765625,0.62939453125
1969/12/31/18:00:42.271,266,1730344464,540534366,RL_myo,-0.1704782669908848,0.26929828641739484,0.3485252074894208,0.881445275193472,-93.375,-84.625,182.5,0.44189453125,0.419921875,0.74365234375
1969/12/31/18:00:42.287,267,1730344464,556819397,RL_myo,-0.19653740832463326,0.29437885725146157,0.33789785480905893,0.8720889720939006,-14.9375,-78.4375,202.5625,0.88818359375,0.2197265625,0.7890625
1969/12/31/18:00:42.309,268,1730344464,579213602,RL_myo,-0.22961736204862426,0.3062175187129048,0.3277021841677469,0.8637812088548992,9.0,-2.0625,216.5,1.025390625,0.78564453125,1.2939453125
1969/12/31/18:00:42.331,269,1730344464,600393528,RL_myo,-0.2415205962491747,0.3017634136608339,0.32599482046167355,0.862747947430398,47.5,21.4375,40.8125,0.8525390625,0.2314453125,1.248046875
1969/12/31/18:00:42.347,270,1730344464,616663775,RL_myo,-0.25068357820939485,0.2975608579914293,0.33979924029503317,0.856242813518722,102.875,9.875,19.625,0.87255859375,0.31591796875,0.55810546875
1969/12/31/18:00:42.370,271,1730344464,639447238,RL_myo,-0.25952643014529186,0.28857971818601597,0.3554755242629774,0.8502969657464866,117.625,32.375,3.5625,0.82568359375,0.201171875,0.41552734375
1969/12/31/18:00:42.391,272,1730344464,660554694,RL_myo,-0.26721669679175747,0.2811939977431765,0.36517987594908285,0.8462675881721602,83.8125,33.1875,4.6875,0.47705078125,0.16943359375,0.34765625
1969/12/31/18:00:42.408,273,1730344464,677377732,RL_myo,-0.27155487555069974,0.28254158663164514,0.37074046169812325,0.8420093297868966,36.1875,-4.6875,20.5,0.517578125,0.3359375,0.26220703125
1969/12/31/18:00:42.429,274,1730344464,699275410,RL_myo,-0.27436244137071425,0.29157494603512835,0.36720009950750093,0.8395673817695605,-26.4375,-24.75,38.375,0.75048828125,0.42431640625,0.37890625
1969/12/31/18:00:42.451,275,1730344464,720652451,RL_myo,-0.2736340201465618,0.301650530351173,0.35878223743508597,0.8398849246523958,-52.875,-30.5625,20.1875,0.85986328125,0.3125,0.5673828125
1969/12/31/18:00:42.467,276,1730344464,736897858,RL_myo,-0.27204718335694245,0.3061064896870241,0.35316692907858854,0.8411672052595971,-21.625,-17.8125,-9.5,0.83056640625,0.123046875,0.7431640625
1969/12/31/18:00:42.498,277,1730344464,767599095,RL_myo,-0.2728330023532176,0.3051823292541584,0.3548660124567354,0.840533171231803,26.1875,0.25,-16.625,0.8056640625,0.158203125,0.67578125
