time,.header.seq,.header.stamp.secs,.header.stamp.nsecs,.header.frame_id,.orientation.x,.orientation.y,.orientation.z,.orientation.w,.angular_velocity.x,.angular_velocity.y,.angular_velocity.z,.linear_acceleration.x,.linear_acceleration.y,.linear_acceleration.z
1969/12/31/18:00:06.794,1,1731183808,970687804,RU_myo,0.4442254340428674,0.7227971406891504,-0.2438417984338081,0.4698608671698259,-2.0,2.0,-2.4375,0.94775390625,0.42919921875,-0.1357421875
1969/12/31/18:00:06.817,2,1731183808,993874206,RU_myo,0.4453809732927978,0.7221800296012586,-0.2428629426794631,0.4702226967586287,-2.4375,4.625,-6.375,0.9541015625,0.42333984375,-0.13232421875
1969/12/31/18:00:06.841,3,1731183809,16408142,RU_myo,0.4468708630079365,0.7217931915132972,-0.2408622354090039,0.4704321460459181,-0.4375,6.5625,-11.875,0.95458984375,0.435546875,-0.12744140625
1969/12/31/18:00:06.856,4,1731183809,30760065,RU_myo,0.4482090590566908,0.7215415071645297,-0.237807775307758,0.4710986678196295,4.625,8.875,-16.1875,0.97607421875,0.43359375,-0.10107421875
1969/12/31/18:00:06.879,5,1731183809,53873320,RU_myo,0.4502661075507889,0.7214511849329436,-0.2330983143197048,0.4716288752941502,6.5625,12.875,-25.1875,1.00048828125,0.45556640625,-0.0966796875
1969/12/31/18:00:06.902,6,1731183809,76338854,RU_myo,0.452586281166882,0.7226731718160327,-0.2263236588761697,0.4708362202186551,10.625,14.125,-37.3125,0.98193359375,0.501953125,-0.16650390625
1969/12/31/18:00:06.925,7,1731183809,97513942,RU_myo,0.4537476202277511,0.7257276304153835,-0.2183896939971608,0.4687626746501384,20.5625,9.0,-41.75,0.98291015625,0.564453125,-0.22607421875
1969/12/31/18:00:06.941,8,1731183809,114302767,RU_myo,0.456689069697558,0.7273942319681634,-0.2097888709637138,0.4672487073689931,14.75,14.6875,-43.625,0.974609375,0.62744140625,-0.15673828125
1969/12/31/18:00:06.965,9,1731183809,136421263,RU_myo,0.4631011427634984,0.7278262852658435,-0.1991084654928867,0.4649323058428321,2.0625,24.5,-56.6875,0.96142578125,0.73291015625,-0.15234375
1969/12/31/18:00:06.986,10,1731183809,157283174,RU_myo,0.4701798172970026,0.728494887633354,-0.1857402549701128,0.4623058465802282,7.0,30.125,-72.3125,0.96826171875,0.75146484375,-0.1376953125
1969/12/31/18:00:07.003,11,1731183809,173898062,RU_myo,0.4768277056002957,0.7295854537942057,-0.169746268468308,0.4599202203914782,18.0625,34.1875,-83.4375,0.94580078125,0.76025390625,-0.08642578125
1969/12/31/18:00:07.027,12,1731183809,196480129,RU_myo,0.4840485977166702,0.7306509097942677,-0.1514406772931978,0.4570688398111509,20.125,40.1875,-102.0625,0.94873046875,0.837890625,0.01953125
1969/12/31/18:00:07.049,13,1731183809,217497891,RU_myo,0.4945727038031079,0.7290720655224144,-0.1328137977879258,0.4541059997895992,-0.9375,50.6875,-112.5,0.95361328125,0.7236328125,0.01318359375
1969/12/31/18:00:07.066,14,1731183809,233935657,RU_myo,0.5062519576605659,0.7255626984218888,-0.114385841410164,0.451866800405253,-11.1875,58.5,-112.5625,0.9619140625,0.6748046875,0.05712890625
1969/12/31/18:00:07.089,15,1731183809,256401450,RU_myo,0.5180394079617188,0.7212998331428809,-0.0950990217514266,0.4497976195675627,-10.8125,63.8125,-115.5,0.96435546875,0.7373046875,0.1083984375
1969/12/31/18:00:07.110,16,1731183809,277116470,RU_myo,0.5332958506601639,0.713177145371793,-0.0747725096782306,0.4487571356362052,-34.1875,84.125,-123.6875,0.9951171875,0.8232421875,0.06494140625
1969/12/31/18:00:07.129,17,1731183809,294704274,RU_myo,0.553561411477098,0.6996274008546143,-0.0535921181251397,0.4485745741476671,-68.5,106.0,-136.0,0.93603515625,0.77880859375,0.138671875
1969/12/31/18:00:07.150,18,1731183809,316345452,RU_myo,0.5758910935683933,0.6816084623082405,-0.0326551918451606,0.4502143832708499,-91.0,125.0625,-134.8125,0.9072265625,0.69189453125,0.17431640625
1969/12/31/18:00:07.172,19,1731183809,337291715,RU_myo,0.5998268049331947,0.6590953332317734,-0.0133674641579698,0.4534561243358811,-115.6875,138.0,-127.125,0.87060546875,0.6474609375,0.2646484375
1969/12/31/18:00:07.190,20,1731183809,353878563,RU_myo,0.624966599811117,0.6312534989009251,0.0051271798402318,0.459248822832195,-139.75,158.8125,-118.0625,0.80126953125,0.65380859375,0.3583984375
1969/12/31/18:00:07.213,21,1731183809,376406203,RU_myo,0.6502966156162957,0.5984755318300901,0.0225839823332109,0.467366358717287,-161.0,177.4375,-105.875,0.7119140625,0.61181640625,0.39892578125
1969/12/31/18:00:07.234,22,1731183809,397259486,RU_myo,0.6736837812084513,0.5624102890327689,0.0385153996504967,0.4778717335399986,-170.75,189.0625,-87.8125,0.697265625,0.560546875,0.4697265625
1969/12/31/18:00:07.252,23,1731183809,413628718,RU_myo,0.6937110563699432,0.5251816919495813,0.0531651852264162,0.4900230849571407,-168.25,194.3125,-68.4375,0.66259765625,0.57373046875,0.53173828125
1969/12/31/18:00:07.274,24,1731183809,436299609,RU_myo,0.7100123873030343,0.4867906455245614,0.0690968038537684,0.5041258860673796,-158.75,210.125,-54.1875,0.60302734375,0.47705078125,0.53759765625
1969/12/31/18:00:07.297,25,1731183809,457367113,RU_myo,0.7201382215563631,0.4517497014526736,0.0855156508222126,0.5196250788361857,-125.8125,209.125,-30.75,0.5322265625,0.39111328125,0.623046875
1969/12/31/18:00:07.313,26,1731183809,473148485,RU_myo,0.7231997360594076,0.4227617633311493,0.1031572884824779,0.5362958204775451,-79.25,201.8125,-3.625,0.462890625,0.4677734375,0.72216796875
1969/12/31/18:00:07.337,27,1731183809,496224641,RU_myo,0.7203843167678932,0.3990741114242065,0.1233601681230225,0.5536863359940314,-38.0625,202.6875,14.8125,0.4501953125,0.53173828125,0.60888671875
1969/12/31/18:00:07.358,28,1731183809,517210890,RU_myo,0.7132177275410787,0.3787958251707261,0.1466719896689099,0.5712455893929786,-5.8125,208.8125,24.1875,0.42041015625,0.51806640625,0.52099609375
1969/12/31/18:00:07.375,29,1731183809,533172585,RU_myo,0.7021662694522732,0.3632294392828997,0.1724897320472987,0.5876003716982818,32.625,203.5625,31.0,0.37646484375,0.52099609375,0.6171875
1969/12/31/18:00:07.399,30,1731183809,556275302,RU_myo,0.6865375412633989,0.3561474531714022,0.2003825344921531,0.6013917491170225,85.25,181.875,41.0625,0.29150390625,0.66162109375,0.681640625
1969/12/31/18:00:07.420,31,1731183809,577141773,RU_myo,0.6683248359434141,0.3515892825859955,0.2291434317409422,0.614182528017411,101.875,177.875,47.5625,0.234375,0.62060546875,0.40478515625
1969/12/31/18:00:07.437,32,1731183809,593274589,RU_myo,0.6512262049342485,0.3439553533418774,0.255875925680417,0.6262001721267649,81.875,177.5625,40.5,0.216796875,0.52197265625,0.31396484375
1969/12/31/18:00:07.461,33,1731183809,616261417,RU_myo,0.6349289284664424,0.3377904912644965,0.2816345006675798,0.6351730849472986,86.6875,161.4375,30.4375,0.18701171875,0.673828125,0.39990234375
1969/12/31/18:00:07.482,34,1731183809,637187703,RU_myo,0.6184357094322795,0.3343044197158108,0.3076308700689587,0.6412028353322243,100.875,146.875,24.625,0.1396484375,0.740234375,0.28564453125
1969/12/31/18:00:07.499,35,1731183809,653131868,RU_myo,0.6038051524552083,0.3292483817573183,0.3302860574135798,0.6464719338509007,80.0,135.4375,19.5,0.06298828125,0.6806640625,0.20458984375
1969/12/31/18:00:07.523,36,1731183809,676335416,RU_myo,0.5899443112645539,0.3230807283521246,0.3481068191558977,0.6529978522408897,56.625,123.25,28.3125,0.03466796875,0.61083984375,0.287109375
1969/12/31/18:00:07.547,37,1731183809,698814779,RU_myo,0.5709008365502638,0.3255227372311084,0.3662970084612566,0.6587364298140113,101.125,101.25,60.9375,0.07373046875,0.50439453125,0.37109375
1969/12/31/18:00:07.561,38,1731183809,713123182,RU_myo,0.5486939510223549,0.3336479181542098,0.3857765903283215,0.66241258832958,131.75,87.4375,75.1875,0.1103515625,0.65625,0.224609375
1969/12/31/18:00:07.585,39,1731183809,736088073,RU_myo,0.5298115166788687,0.3383957429110193,0.4026689603145734,0.6653163055068744,88.875,84.3125,56.75,0.0673828125,0.97509765625,0.1748046875
1969/12/31/18:00:07.609,40,1731183809,758836611,RU_myo,0.5157160584980263,0.3366895228636659,0.4148190713164382,0.6697777618533367,48.875,82.8125,43.0625,-0.02490234375,1.0400390625,0.34423828125
1969/12/31/18:00:07.630,41,1731183809,779727838,RU_myo,0.5041373890935827,0.3356643059239146,0.4231360190333836,0.6738923326786721,38.6875,62.25,42.3125,-0.04052734375,0.9609375,0.3974609375
1969/12/31/18:00:07.655,42,1731183809,803700557,RU_myo,0.4960622001723571,0.3342483829388246,0.4275766841648039,0.6777746610943587,4.6875,45.1875,32.1875,0.00927734375,1.05859375,0.25390625
1969/12/31/18:00:07.671,43,1731183809,818793188,RU_myo,0.4931861790334693,0.3278955635851234,0.4264107236049278,0.6836854444744914,-49.3125,39.5625,15.75,0.017578125,1.09814453125,0.232421875
1969/12/31/18:00:07.692,44,1731183809,839808109,RU_myo,0.4925834858973121,0.3200877075644987,0.4220836189566187,0.6904714240979423,-63.9375,32.4375,10.625,0.025390625,1.0,0.33837890625
1969/12/31/18:00:07.710,45,1731183809,856336224,RU_myo,0.4908223812285793,0.3153935137182028,0.4180016996211057,0.6963439528734775,-37.9375,23.1875,17.8125,0.0537109375,0.77734375,0.4345703125
1969/12/31/18:00:07.733,46,1731183809,878789338,RU_myo,0.4859337703491967,0.3151458430238541,0.4173866501253369,0.7002427098914691,5.375,19.8125,26.75,0.0927734375,0.6318359375,0.46826171875
1969/12/31/18:00:07.754,47,1731183809,899688388,RU_myo,0.4781165383980203,0.3192326689418672,0.4222660810210015,0.7008469416425469,47.375,18.875,29.3125,0.1083984375,0.77880859375,0.43896484375
1969/12/31/18:00:07.771,48,1731183809,916275056,RU_myo,0.4694386380260219,0.3245968894841223,0.4309850764662255,0.6989392593987748,69.4375,20.1875,26.1875,0.06103515625,0.947265625,0.42138671875
1969/12/31/18:00:07.795,49,1731183809,938807609,RU_myo,0.460973204914809,0.3294322546246324,0.4394871657026781,0.6970144368276224,68.0,21.125,24.0,0.0673828125,0.95751953125,0.427734375
1969/12/31/18:00:07.816,50,1731183809,959878155,RU_myo,0.4547315903816185,0.3325949578509314,0.4449655428029528,0.6961360789667597,41.5,15.875,20.4375,0.0576171875,0.93896484375,0.3466796875
1969/12/31/18:00:07.834,51,1731183809,976455283,RU_myo,0.4515712725886811,0.3343141200281436,0.4463829030063564,0.6964623168744055,7.75,6.125,14.9375,0.06640625,0.994140625,0.2900390625
1969/12/31/18:00:07.857,52,1731183809,998834336,RU_myo,0.4504627164477662,0.3341847388281193,0.4446640771438993,0.6983392871109612,-15.375,2.3125,13.125,0.064453125,1.0546875,0.35205078125
1969/12/31/18:00:07.879,53,1731183810,19829115,RU_myo,0.4500231125795023,0.333443139023711,0.4401962142850089,0.7017992334787899,-22.0625,-1.25,17.4375,0.06298828125,0.8447265625,0.44775390625
1969/12/31/18:00:07.896,54,1731183810,36336517,RU_myo,0.4486816639024018,0.3350311050415295,0.4360470421600814,0.7044869765693813,-13.75,-7.6875,21.75,0.1005859375,0.7255859375,0.36083984375
1969/12/31/18:00:07.919,55,1731183810,58973347,RU_myo,0.4458154255229181,0.3386341704273206,0.4334248817960352,0.7061999552711066,-4.5,-9.3125,27.5,0.1171875,0.775390625,0.26708984375
1969/12/31/18:00:07.941,56,1731183810,79895728,RU_myo,0.4420546628020124,0.3435964784469108,0.4335090051394494,0.7061154845752112,13.0,-9.0625,25.125,0.14794921875,1.0625,0.3359375
1969/12/31/18:00:07.965,57,1731183810,103908021,RU_myo,0.4400727974637868,0.3459545930686191,0.4345184806025934,0.7055813507186374,16.6875,-2.75,9.1875,0.14501953125,1.06591796875,0.462890625
1969/12/31/18:00:07.981,58,1731183810,118933401,RU_myo,0.4405805937702663,0.3454205569611994,0.4336831696782686,0.7060398625852966,-4.8125,-0.1875,-1.5,0.1298828125,0.98046875,0.44677734375
1969/12/31/18:00:08.003,59,1731183810,139936191,RU_myo,0.4421567869144537,0.3438861592319205,0.4312310463211782,0.7073043686864563,-22.0,-1.5625,-1.6875,0.10400390625,1.00927734375,0.4013671875
1969/12/31/18:00:08.020,60,1731183810,156446802,RU_myo,0.4445583888926959,0.3407283985718836,0.4272839107852357,0.7097185758142764,-28.0625,0.875,-3.5,0.1005859375,0.890625,0.498046875
1969/12/31/18:00:08.044,61,1731183810,179503819,RU_myo,0.4452089625168302,0.3391254449881421,0.4245782209030808,0.7116995479772745,-9.75,1.625,1.0625,0.1259765625,0.748046875,0.5205078125
1969/12/31/18:00:08.065,62,1731183810,199910033,RU_myo,0.4433863190464623,0.3403527140698064,0.426295436704363,0.7112248608933617,18.8125,3.375,3.6875,0.1328125,0.8525390625,0.43701171875
1969/12/31/18:00:08.082,63,1731183810,216369235,RU_myo,0.4410660558393952,0.3415118436785796,0.4302011571486379,0.709758662787225,26.25,7.125,3.0,0.0791015625,0.9560546875,0.41015625
1969/12/31/18:00:08.105,64,1731183810,238757897,RU_myo,0.4392424800126894,0.3420671008881478,0.4335047377779489,0.7086111659904546,20.75,7.875,0.9375,0.08056640625,0.93701171875,0.3916015625
1969/12/31/18:00:08.127,65,1731183810,259693264,RU_myo,0.4374005722141634,0.3426080675185737,0.4360577292629058,0.7079223885765933,17.625,7.6875,0.8125,0.11474609375,0.8701171875,0.37548828125
1969/12/31/18:00:08.143,66,1731183810,276277546,RU_myo,0.4357497997220389,0.3429111044737939,0.4380692411549339,0.7075517128978673,14.6875,7.4375,1.75,0.1142578125,0.86376953125,0.38232421875
1969/12/31/18:00:08.167,67,1731183810,298786135,RU_myo,0.4341183012753926,0.343473520989403,0.4402833671399616,0.7069072057185493,14.375,6.1875,1.8125,0.10302734375,0.90478515625,0.35498046875
1969/12/31/18:00:08.189,68,1731183810,319890195,RU_myo,0.4325850395327199,0.3441391918845033,0.442656512867403,0.7060408003774477,15.625,5.375,1.4375,0.08984375,0.84716796875,0.32763671875
1969/12/31/18:00:08.205,69,1731183810,335724871,RU_myo,0.4302118443044017,0.3460983480712199,0.445166711196368,0.7049541132053825,21.375,3.0625,4.875,0.1220703125,0.83056640625,0.31494140625
1969/12/31/18:00:08.229,70,1731183810,358889204,RU_myo,0.4273963361468658,0.3490220294327019,0.4488821273956085,0.7028661540604342,27.9375,1.5,4.1875,0.142578125,0.96630859375,0.28466796875
1969/12/31/18:00:08.252,71,1731183810,381311904,RU_myo,0.4258702551060118,0.3503648078412652,0.4524222919371878,0.7008516940127888,21.5,3.5,-1.625,0.10546875,1.0322265625,0.31787109375
1969/12/31/18:00:08.267,72,1731183810,395758902,RU_myo,0.4257463748141168,0.3496308580552346,0.4546177777226583,0.699872105178303,11.4375,5.3125,-5.125,0.05322265625,0.9365234375,0.3701171875
1969/12/31/18:00:08.291,73,1731183810,418953324,RU_myo,0.4253189495497415,0.3492034601570136,0.4569370918957183,0.6988341925078919,15.1875,5.1875,-4.0625,0.056640625,0.87158203125,0.36865234375
1969/12/31/18:00:08.313,74,1731183810,439818161,RU_myo,0.4242203207468292,0.3497528687596161,0.4605995022094351,0.6968200261360867,23.25,4.5,-4.125,0.05615234375,0.9130859375,0.31689453125
1969/12/31/18:00:08.330,75,1731183810,455727105,RU_myo,0.4237932355865013,0.3499971788640355,0.4649334690281406,0.694073582292108,22.0,3.75,-7.1875,0.0078125,0.99462890625,0.2802734375
1969/12/31/18:00:08.353,76,1731183810,478700128,RU_myo,0.4237299841054052,0.3503005443360588,0.4692037435635623,0.6910790665573895,26.9375,0.9375,-8.3125,-0.0166015625,0.90234375,0.31591796875
1969/12/31/18:00:08.375,77,1731183810,499920546,RU_myo,0.4240312702499693,0.351273925476979,0.4738383116381908,0.6872273026838065,25.0,-2.4375,-11.5,-0.00390625,0.92041015625,0.216796875
1969/12/31/18:00:08.392,78,1731183810,515848790,RU_myo,0.4262838984110201,0.3513302003513505,0.4772499716030593,0.6834336784805545,10.8125,-7.25,-18.125,-0.01513671875,1.123046875,0.22216796875
1969/12/31/18:00:08.415,79,1731183810,538972219,RU_myo,0.4318472551498112,0.3490790745161513,0.4788468857456211,0.6799686816069113,-6.625,-10.125,-35.875,0.01953125,1.21728515625,0.29736328125
1969/12/31/18:00:08.437,80,1731183810,559955612,RU_myo,0.440207722182387,0.3443776994665873,0.4779293489584152,0.6776464408858653,-26.6875,-11.4375,-50.4375,0.068359375,1.12646484375,0.34814453125
1969/12/31/18:00:08.454,81,1731183810,575866847,RU_myo,0.4494744903397219,0.3387538595037285,0.47541510120262,0.6761649109157305,-34.5625,-11.8125,-53.875,0.0908203125,1.06787109375,0.41357421875
1969/12/31/18:00:08.486,82,1731183810,606427846,RU_myo,0.4590089594890956,0.3327204572041303,0.47304779734581,0.674413562951465,-33.875,-10.375,-58.375,0.0927734375,1.11572265625,0.4580078125
1969/12/31/18:00:08.501,83,1731183810,621363023,RU_myo,0.4690737741110877,0.3242926430516863,0.4712100892827062,0.6728782414834914,-34.0625,-1.125,-65.75,0.04833984375,0.99462890625,0.5244140625
1969/12/31/18:00:08.522,84,1731183810,642266986,RU_myo,0.4770178462075674,0.3172183936968302,0.4723789010621067,0.6698392635037549,-16.875,5.1875,-65.375,0.05224609375,0.921875,0.412109375
1969/12/31/18:00:08.539,85,1731183810,658727331,RU_myo,0.4839737142712813,0.3105635336375683,0.475672487743233,0.6656240830026892,1.5625,9.0,-64.0625,-0.01416015625,0.86669921875,0.4541015625
1969/12/31/18:00:08.563,86,1731183810,681441986,RU_myo,0.4888602756709158,0.306293028257792,0.4812304174540517,0.660013255191611,23.9375,10.25,-59.625,-0.00390625,0.88134765625,0.44873046875
1969/12/31/18:00:08.585,87,1731183810,702589131,RU_myo,0.4925149007424757,0.3026259608230505,0.4878760195358295,0.6540822501371136,30.0625,14.875,-59.3125,0.02099609375,0.91748046875,0.4150390625
1969/12/31/18:00:08.608,88,1731183810,724546679,RU_myo,0.4976602325311323,0.2954953005866811,0.493082222296883,0.6495280920352973,8.25,20.9375,-63.8125,-0.060546875,0.89013671875,0.39990234375
1969/12/31/18:00:08.624,89,1731183810,741330730,RU_myo,0.5022206180258981,0.2872448017051381,0.4972765404784871,0.6465144368170045,-1.0,24.25,-53.625,-0.14794921875,0.794921875,0.3818359375
1969/12/31/18:00:08.646,90,1731183810,762382810,RU_myo,0.5060726729876839,0.280290159734585,0.5022882675208842,0.6426775025795831,5.625,22.0625,-50.4375,-0.16796875,0.7666015625,0.31689453125
1969/12/31/18:00:08.664,91,1731183810,778867532,RU_myo,0.5086537567510363,0.2742567297590791,0.5081654296114697,0.6386098167681917,10.3125,23.4375,-42.75,-0.2236328125,0.78955078125,0.2646484375
1969/12/31/18:00:08.687,92,1731183810,801421585,RU_myo,0.5106377991308315,0.2682588007626111,0.5140558862395247,0.6348486431699473,11.6875,24.4375,-37.3125,-0.27685546875,0.8115234375,0.28173828125
1969/12/31/18:00:08.716,93,1731183810,830100951,RU_myo,0.5116341555989538,0.2637522293418133,0.5193251486322953,0.6316380627699801,19.5,23.375,-29.0,-0.236328125,0.7109375,0.33154296875
1969/12/31/18:00:08.726,94,1731183810,838824760,RU_myo,0.5105345140513754,0.2610049715547203,0.5248788003739571,0.6290732546405398,28.5,25.6875,-16.625,-0.2099609375,0.68017578125,0.34130859375
1969/12/31/18:00:08.748,95,1731183810,861287174,RU_myo,0.5088149744190752,0.2588022422669001,0.5305445966471452,0.6266188252622632,28.5625,25.75,-12.0,-0.24658203125,0.80029296875,0.3330078125
1969/12/31/18:00:08.771,96,1731183810,882489599,RU_myo,0.5083314958126018,0.2551423694160273,0.5342730046647098,0.6253429604466986,7.25,22.1875,-14.25,-0.2841796875,0.884765625,0.2841796875
1969/12/31/18:00:08.788,97,1731183810,898993637,RU_myo,0.5087573015577538,0.2502585406582832,0.5348208129872872,0.6265008930040534,-16.625,17.3125,-7.9375,-0.30126953125,0.83447265625,0.2724609375
1969/12/31/18:00:08.812,98,1731183810,921406003,RU_myo,0.5084563658199239,0.2464151679249739,0.5325058025705902,0.6302295290625107,-27.75,15.0625,0.6875,-0.16259765625,0.82421875,0.31787109375
1969/12/31/18:00:08.833,99,1731183810,942280296,RU_myo,0.5075475773032021,0.2430002291333791,0.5297050963123497,0.6346328516201314,-28.8125,14.8125,7.125,-0.1748046875,0.85302734375,0.353515625
1969/12/31/18:00:08.850,100,1731183810,958793433,RU_myo,0.5070994794789034,0.239511116691769,0.5263873267965893,0.6390625361271208,-34.875,9.6875,11.5,-0.25048828125,0.82470703125,0.30322265625
1969/12/31/18:00:08.874,101,1731183810,981386309,RU_myo,0.5056984432085287,0.238596887688852,0.5231552633361859,0.643155642255675,-24.5,2.875,21.125,-0.21728515625,0.72705078125,0.26953125
1969/12/31/18:00:08.895,102,1731183811,2459844,RU_myo,0.5028175055969981,0.241032572178022,0.5213725580006747,0.64594776180299,-6.9375,-1.0625,24.5625,-0.130859375,0.82177734375,0.26123046875
1969/12/31/18:00:08.912,103,1731183811,18824948,RU_myo,0.4994139699194466,0.244213553366867,0.520716276873967,0.647919737312995,2.625,0.875,22.1875,-0.10595703125,0.92626953125,0.2978515625
1969/12/31/18:00:08.936,104,1731183811,41271513,RU_myo,0.4961212251122787,0.2474502271905977,0.5200483314415126,0.64975522161912,5.1875,-0.4375,25.0625,-0.14501953125,0.9150390625,0.326171875
1969/12/31/18:00:08.957,105,1731183811,62396163,RU_myo,0.4923949529222995,0.2517214312447705,0.5189465587883216,0.6518266644672415,8.875,-3.6875,31.25,-0.12646484375,0.84765625,0.33203125
1969/12/31/18:00:08.964,106,1731183811,69254805,RU_myo,0.488559064965934,0.2555107753557471,0.5175527625994696,0.6543419760663184,5.75,-1.375,30.8125,-0.10546875,0.880859375,0.34912109375
1969/12/31/18:00:08.979,107,1731183811,84096159,RU_myo,0.4845274188169288,0.2590494287552338,0.5165728830243976,0.6567183798250613,3.375,0.5,29.5,-0.09912109375,0.95556640625,0.31640625
1969/12/31/18:00:09.003,108,1731183811,106728121,RU_myo,0.4812403981701847,0.2621673655683591,0.5151787113846219,0.6589892616242154,-4.25,-2.125,26.0625,-0.11376953125,1.04345703125,0.28564453125
1969/12/31/18:00:09.035,109,1731183811,137974904,RU_myo,0.4795104350607668,0.2633767219051946,0.5117382239752379,0.6624397596377931,-16.875,-3.125,23.125,-0.11767578125,0.94921875,0.34912109375
1969/12/31/18:00:09.041,110,1731183811,144142296,RU_myo,0.4778091078417271,0.2645407094259128,0.5082673021203452,0.6658686200109097,-14.75,-2.3125,21.75,-0.08056640625,0.86181640625,0.35986328125
1969/12/31/18:00:09.065,111,1731183811,166743331,RU_myo,0.4750745978975456,0.267233276319601,0.5067543764288095,0.6679000706918855,2.5,-1.6875,22.625,-0.06640625,0.88134765625,0.36572265625
1969/12/31/18:00:09.088,112,1731183811,189184209,RU_myo,0.4719568240916711,0.2702215287446751,0.5060778619430996,0.6694193597792755,6.0,-0.625,21.875,-0.0634765625,0.978515625,0.36376953125
1969/12/31/18:00:09.103,113,1731183811,204280917,RU_myo,0.4694968610664413,0.2722251690530848,0.5053866367173862,0.6708580343189361,2.125,1.125,16.5625,-0.0625,1.001953125,0.35888671875
1969/12/31/18:00:09.127,114,1731183811,226774065,RU_myo,0.4670117416335911,0.2740664906462978,0.5043067585121853,0.6726531685795549,6.1875,1.3125,19.875,-0.07177734375,0.85693359375,0.41455078125
1969/12/31/18:00:09.150,115,1731183811,249203268,RU_myo,0.4634666285596611,0.2777259528442589,0.5043625380993653,0.6735617339860215,16.6875,-0.8125,23.8125,-0.046875,0.8720703125,0.37060546875
1969/12/31/18:00:09.165,116,1731183811,264156478,RU_myo,0.4601793709408965,0.2810884736944991,0.5054098940695879,0.6736356993903349,15.125,0.4375,17.0625,-0.03955078125,1.037109375,0.3251953125
1969/12/31/18:00:09.190,117,1731183811,288185318,RU_myo,0.4583308055062541,0.2822985717760587,0.5051465902743054,0.6745867708689733,-0.375,1.9375,11.5,-0.05615234375,1.01611328125,0.314453125
1969/12/31/18:00:09.212,118,1731183811,309191548,RU_myo,0.457238869851826,0.2832183094530066,0.5038111909967925,0.6759395601040077,-8.1875,-1.4375,10.4375,-0.0517578125,0.94873046875,0.28662109375
1969/12/31/18:00:09.227,119,1731183811,324133509,RU_myo,0.4561943934139778,0.2842517112829669,0.5019725302965686,0.6775774633781868,-4.5,-2.4375,12.5,-0.03955078125,0.8916015625,0.36279296875
1969/12/31/18:00:09.251,120,1731183811,346744351,RU_myo,0.4547393786066781,0.2861500948869942,0.5016172098509639,0.6780194654446954,6.875,-2.125,10.1875,-0.0263671875,0.9228515625,0.35986328125
1969/12/31/18:00:09.270,121,1731183811,364552631,RU_myo,0.4534581415515062,0.2878595498124786,0.5020451223934768,0.6778372138820132,7.0625,-1.5,6.75,-0.0361328125,0.9892578125,0.3193359375
1969/12/31/18:00:09.289,122,1731183811,384216635,RU_myo,0.4529174631909885,0.2887196227619105,0.5014443342471658,0.6782774731776637,-3.3125,-1.6875,3.8125,-0.02734375,1.02099609375,0.31787109375
1969/12/31/18:00:09.313,123,1731183811,406643756,RU_myo,0.4528459487416622,0.2882246353899621,0.4996626144223274,0.679848790549216,-8.0625,1.1875,3.6875,-0.0263671875,0.93115234375,0.40185546875
1969/12/31/18:00:09.330,124,1731183811,423139147,RU_myo,0.4522984812611507,0.2884699895330901,0.4989322248081843,0.6806451234201203,0.4375,1.1875,3.1875,-0.013671875,0.8818359375,0.3740234375
1969/12/31/18:00:09.351,125,1731183811,444080693,RU_myo,0.4516314969606241,0.2891442628872113,0.499303371420179,0.6805297418048382,2.25,0.0,2.75,-0.04931640625,0.94775390625,0.302734375
1969/12/31/18:00:09.375,126,1731183811,466684497,RU_myo,0.4515130011208581,0.2896348776961568,0.4993683739583264,0.6803520225081905,-2.125,-1.9375,1.125,-0.0546875,0.9951171875,0.2861328125
1969/12/31/18:00:09.394,127,1731183811,484840094,RU_myo,0.4518803322279011,0.2896966171489422,0.4992474992965019,0.6801705446461573,1.3125,-1.4375,-2.25,-0.04541015625,0.93896484375,0.35888671875
1969/12/31/18:00:09.415,128,1731183811,504228833,RU_myo,0.4517028472985078,0.2897612724494617,0.4991926871901617,0.6803011125867391,4.875,0.9375,-0.125,-0.0341796875,0.87109375,0.38427734375
1969/12/31/18:00:09.437,129,1731183811,526786571,RU_myo,0.4512135599208404,0.2905541863126624,0.499924114685022,0.6797502980625648,7.125,-0.375,0.75,-0.04296875,0.931640625,0.3251953125
1969/12/31/18:00:09.456,130,1731183811,544636659,RU_myo,0.4512009362288353,0.2909733310339364,0.5002153236465511,0.6793650460263714,0.0,-2.1875,0.625,-0.07373046875,0.9580078125,0.2890625
1969/12/31/18:00:09.476,131,1731183811,564110109,RU_myo,0.4520453412151035,0.2910888782412677,0.4996547614348957,0.6791666907508043,-5.6875,-5.4375,-0.875,-0.08447265625,0.9521484375,0.28955078125
1969/12/31/18:00:09.499,132,1731183811,586612120,RU_myo,0.4530914767168232,0.2910332966436499,0.4990537402178023,0.6789352681558972,-3.5,-5.25,-2.3125,-0.07421875,0.89794921875,0.31689453125
1969/12/31/18:00:09.518,133,1731183811,604576650,RU_myo,0.4538147908746798,0.291332615581015,0.4987384877252198,0.6785553503905603,0.75,-4.625,-2.5625,-0.0517578125,0.89453125,0.33740234375
1969/12/31/18:00:09.538,134,1731183811,624135289,RU_myo,0.4541378546520589,0.2921986438466944,0.4990633198434454,0.6777275000271251,4.9375,-4.8125,-1.625,-0.05712890625,0.92138671875,0.3154296875
1969/12/31/18:00:09.561,135,1731183811,646755518,RU_myo,0.4545003312552338,0.2931728567041214,0.4989981477318744,0.6771114926959856,1.9375,-6.625,1.25,-0.07763671875,0.91162109375,0.30078125
1969/12/31/18:00:09.580,136,1731183811,664686570,RU_myo,0.4548640449619453,0.2943920140702445,0.4982018699650292,0.6769246187101414,1.5,-8.9375,4.625,-0.0771484375,0.890625,0.33251953125
1969/12/31/18:00:09.601,137,1731183811,684346894,RU_myo,0.4548615283167932,0.2959773954385575,0.4980159969856033,0.67637152378937,7.875,-7.375,4.125,-0.05859375,0.88671875,0.3525390625
1969/12/31/18:00:09.623,138,1731183811,706646859,RU_myo,0.4546171976002346,0.2969539025678224,0.4983209990881198,0.6758829523398763,6.25,-3.5,3.0,-0.068359375,0.90576171875,0.32763671875
1969/12/31/18:00:09.642,139,1731183811,724652076,RU_myo,0.4543648599934175,0.2978641210058943,0.4981899499283011,0.6757487056672656,3.0,-3.625,4.1875,-0.0615234375,0.93017578125,0.32275390625
1969/12/31/18:00:09.663,140,1731183811,744265705,RU_myo,0.453887884660052,0.2992144177788562,0.4979582252631393,0.6756434904924846,5.0625,-4.8125,6.3125,-0.05322265625,0.9169921875,0.341796875
1969/12/31/18:00:09.686,141,1731183811,766664582,RU_myo,0.4537641772349391,0.3000678901381438,0.4969798131620762,0.6760683383177544,-2.25,-5.0625,6.75,-0.060546875,0.931640625,0.32421875
1969/12/31/18:00:09.704,142,1731183811,784498255,RU_myo,0.4540758849555155,0.3006825929951431,0.4956440631588635,0.6765663541936999,-7.1875,-6.5,5.25,-0.0625,0.94482421875,0.30126953125
1969/12/31/18:00:09.724,143,1731183811,804071948,RU_myo,0.4546718018601121,0.3014054715512463,0.4941023272999876,0.6769720706712986,-8.1875,-8.375,4.6875,-0.0576171875,0.9150390625,0.2939453125
1969/12/31/18:00:09.751,144,1731183811,829711252,RU_myo,0.4544356963420571,0.3026315893168461,0.4931344514100039,0.6772892527349181,-0.6875,-5.6875,5.25,-0.0185546875,0.958984375,0.341796875
1969/12/31/18:00:09.766,145,1731183811,844619082,RU_myo,0.4543824828974142,0.3029420019639799,0.4938143856313918,0.6766905165772076,6.4375,-0.3125,-1.625,-0.04638671875,1.0732421875,0.3916015625
1969/12/31/18:00:09.787,146,1731183811,864289838,RU_myo,0.455832570178122,0.3007347446796475,0.4925164714471434,0.6776450447398917,-12.75,2.1875,-5.375,-0.068359375,0.94482421875,0.38818359375
1969/12/31/18:00:09.810,147,1731183811,886724576,RU_myo,0.4582025227297051,0.2997512440556256,0.4904299014430772,0.6779956870229872,-17.6875,-7.375,-8.625,-0.02099609375,0.91162109375,0.29541015625
1969/12/31/18:00:09.828,148,1731183811,904809544,RU_myo,0.4597636927372109,0.2998352706751434,0.488758349408769,0.6781087178196596,-9.5,-8.0625,-5.125,-0.00830078125,0.94775390625,0.34375
1969/12/31/18:00:09.848,149,1731183811,924138151,RU_myo,0.460157048071837,0.299630050269883,0.4879898659416815,0.6784859724587532,-1.375,-1.125,-0.9375,-0.025390625,0.9755859375,0.41650390625
1969/12/31/18:00:09.879,150,1731183811,954104274,RU_myo,0.4607084696884596,0.2983496290192356,0.488419339486891,0.6783669756382539,1.9375,3.75,-4.5625,-0.0771484375,0.87060546875,0.3837890625
1969/12/31/18:00:09.890,151,1731183811,964708321,RU_myo,0.4605287999532032,0.2978025202083073,0.4893385539065381,0.678066857346605,3.8125,3.8125,-0.75,-0.08056640625,0.8193359375,0.30810546875
1969/12/31/18:00:09.912,152,1731183811,985789678,RU_myo,0.4591707613045965,0.2992575093282515,0.4912754828845802,0.676945754835741,15.875,0.875,4.125,-0.0576171875,0.85302734375,0.29541015625
1969/12/31/18:00:09.934,153,1731183812,6724092,RU_myo,0.4571734940242699,0.3010386745697863,0.4938572416756165,0.6756279579912742,21.875,3.75,3.5625,-0.02685546875,0.94287109375,0.32861328125
1969/12/31/18:00:09.952,154,1731183812,24785133,RU_myo,0.4558503359987857,0.3013568704908952,0.4962591365385817,0.6746194313683155,15.3125,7.25,-2.1875,-0.02734375,0.9970703125,0.34912109375
1969/12/31/18:00:09.984,155,1731183812,56088151,RU_myo,0.455526374102175,0.3006120048845253,0.4974594598596712,0.6742864604993605,3.875,6.375,-3.9375,-0.048828125,0.94775390625,0.31982421875
1969/12/31/18:00:09.996,156,1731183812,66572891,RU_myo,0.4555281739133501,0.3002469633498283,0.4970951960807079,0.6747163921262458,-5.0625,1.3125,-0.75,-0.0234375,0.91943359375,0.294921875
1969/12/31/18:00:10.014,157,1731183812,84612947,RU_myo,0.4555270028880959,0.3007955339987319,0.4968497659800482,0.6746536195795422,1.0625,-1.875,-0.3125,-0.01708984375,0.943359375,0.33251953125
1969/12/31/18:00:10.035,158,1731183812,104233786,RU_myo,0.4554336084140141,0.3006313525585068,0.4973083511257168,0.6744519420139984,3.3125,1.875,-1.75,-0.04248046875,0.953125,0.34423828125
1969/12/31/18:00:10.058,159,1731183812,126738091,RU_myo,0.4555462045994217,0.2995263601727673,0.4977252783470031,0.6745599768227535,-2.0625,4.875,-3.125,-0.06494140625,0.95654296875,0.32666015625
1969/12/31/18:00:10.077,160,1731183812,144733086,RU_myo,0.4558444220367205,0.2986061746925063,0.4982670081796665,0.6743665204421114,-1.0625,3.0625,-3.125,-0.07666015625,0.90087890625,0.29736328125
1969/12/31/18:00:10.099,161,1731183812,167027198,RU_myo,0.4557707025799636,0.2989030575243179,0.4989245644688124,0.6737984178090556,3.0,-0.25,-1.5,-0.0498046875,0.88623046875,0.2744140625
1969/12/31/18:00:10.120,162,1731183812,186528885,RU_myo,0.4556627740439026,0.2995227370707877,0.499611494380354,0.6730868599306248,5.375,-1.4375,-1.1875,-0.046875,0.92236328125,0.29638671875
1969/12/31/18:00:10.139,163,1731183812,204421857,RU_myo,0.4556469256246946,0.2998785459603649,0.5002655328091088,0.6724530716151722,4.5625,-1.0,-1.25,-0.060546875,0.92724609375,0.30419921875
1969/12/31/18:00:10.160,164,1731183812,225800734,RU_myo,0.4559587471723269,0.2998829082808089,0.500211771496281,0.6722797377986625,-1.6875,-1.375,-1.6875,-0.05126953125,0.9306640625,0.29248046875
1969/12/31/18:00:10.182,165,1731183812,246732299,RU_myo,0.4561437835320429,0.2998231319027692,0.49966452723047,0.6725877627110372,-3.5,-0.9375,-1.0625,-0.02490234375,0.92822265625,0.31103515625
1969/12/31/18:00:10.201,166,1731183812,264707443,RU_myo,0.4563784045569371,0.2995727176093951,0.4990437121382263,0.6730009748087186,-4.125,-0.125,-0.125,-0.041015625,0.943359375,0.33203125
1969/12/31/18:00:10.223,167,1731183812,286814845,RU_myo,0.4568671124474363,0.2990236451409472,0.4986779303534475,0.6731846871319672,-2.5625,-0.3125,-1.125,-0.06982421875,0.92578125,0.3427734375
1969/12/31/18:00:10.244,168,1731183812,306890215,RU_myo,0.4575372528543527,0.2987176247957847,0.4982492789554537,0.673182812397366,-5.6875,-2.625,-1.4375,-0.0732421875,0.93408203125,0.2890625
1969/12/31/18:00:10.263,169,1731183812,324838825,RU_myo,0.4585252210168014,0.298663991804474,0.4971018903036249,0.6733826195763248,-11.1875,-5.125,-2.6875,-0.03564453125,0.92919921875,0.26025390625
1969/12/31/18:00:10.284,170,1731183812,345776090,RU_myo,0.460306525453092,0.2983049979961889,0.494733376050565,0.6740704098366921,-20.5,-8.3125,-3.6875,-0.02783203125,0.90673828125,0.2373046875
1969/12/31/18:00:10.306,171,1731183812,366875869,RU_myo,0.4630927653574923,0.298107956505337,0.4908649029926127,0.6750765763613898,-30.8125,-15.5,-3.5625,-0.02734375,0.8759765625,0.19873046875
1969/12/31/18:00:10.325,172,1731183812,384619739,RU_myo,0.4677988343591703,0.2979898107178326,0.4848285674993332,0.6762452095335657,-46.9375,-27.4375,-5.9375,-0.03857421875,0.9306640625,0.17041015625
1969/12/31/18:00:10.347,173,1731183812,405733631,RU_myo,0.4752553549483272,0.2976907739639085,0.4764761495924277,0.677113749350346,-67.625,-41.0625,-13.625,-0.05224609375,1.0791015625,0.1337890625
1969/12/31/18:00:10.368,174,1731183812,426785722,RU_myo,0.4880082524822793,0.2942088526534817,0.4599912683810453,0.6809531037763988,-113.3125,-60.625,-19.8125,-0.091796875,1.10302734375,0.01416015625
1969/12/31/18:00:10.387,175,1731183812,444710543,RU_myo,0.5064436116619347,0.2899369838970941,0.4322197437842786,0.6874863683437834,-178.5,-99.3125,-17.9375,-0.09130859375,0.97900390625,-0.1376953125
1969/12/31/18:00:10.409,176,1731183812,465542401,RU_myo,0.5279279703178231,0.2838932812982073,0.3960222767281809,0.6956026303320514,-223.9375,-121.1875,-16.3125,0.009765625,0.80712890625,-0.02685546875
1969/12/31/18:00:10.431,177,1731183812,487536293,RU_myo,0.5507627544172065,0.2765716546896113,0.3570832443024114,0.7018974745698169,-231.5625,-128.9375,-27.5,0.13818359375,0.58203125,0.2353515625
1969/12/31/18:00:10.448,178,1731183812,503711441,RU_myo,0.5727907658355346,0.2713187291281917,0.3211876608937108,0.7036585622924171,-198.875,-131.8125,-40.0,0.2353515625,0.4501953125,0.4306640625
1969/12/31/18:00:10.472,179,1731183812,526330182,RU_myo,0.5922525799030225,0.2718026113890713,0.2917620665707974,0.700167921680673,-138.75,-137.25,-46.6875,0.263671875,0.3779296875,0.51318359375
1969/12/31/18:00:10.493,180,1731183812,547597052,RU_myo,0.6073961643027291,0.2802897383658056,0.2677768036173322,0.6933997011837004,-77.25,-148.375,-35.25,0.2939453125,0.314453125,0.51123046875
1969/12/31/18:00:10.510,181,1731183812,564010677,RU_myo,0.6172779216704168,0.2967670577634299,0.2490963312901187,0.6847249802530145,-17.875,-156.75,-17.875,0.34423828125,0.38037109375,0.50390625
1969/12/31/18:00:10.540,182,1731183812,592620005,RU_myo,0.6233184778629732,0.320143499450773,0.2351788185669835,0.6735526246786044,35.3125,-165.4375,-9.5625,0.38037109375,0.46240234375,0.54833984375
1969/12/31/18:00:10.555,183,1731183812,607472068,RU_myo,0.6262114563694934,0.3486616472153764,0.2223694644267535,0.6609433326414733,65.5,-180.1875,2.5,0.38525390625,0.47216796875,0.5380859375
1969/12/31/18:00:10.573,184,1731183812,625238034,RU_myo,0.6256933417505957,0.3809948140871347,0.2064281418203604,0.6486433657968569,73.0625,-200.75,27.125,0.453125,0.53076171875,0.47802734375
1969/12/31/18:00:10.596,185,1731183812,646500783,RU_myo,0.6219227437808484,0.4136588904311326,0.1850081299832909,0.6386473322385924,55.25,-211.9375,60.0625,0.5517578125,0.751953125,0.416015625
1969/12/31/18:00:10.618,186,1731183812,667356905,RU_myo,0.6191740681889364,0.4400262083570625,0.1568077859993471,0.6311986434485204,2.9375,-208.6875,75.5,0.650390625,0.8525390625,0.46630859375
1969/12/31/18:00:10.634,187,1731183812,683819125,RU_myo,0.6216809899578584,0.4593175699001359,0.1233595759160365,0.6223524176347888,-52.5,-210.75,58.75,0.60791015625,0.7431640625,0.44140625
1969/12/31/18:00:10.658,188,1731183812,706503590,RU_myo,0.6253953408451991,0.4769509265434692,0.0825844130551975,0.6120280189981272,-85.875,-235.6875,67.1875,0.62353515625,0.61083984375,0.4052734375
1969/12/31/18:00:10.680,189,1731183812,727407165,RU_myo,0.6277041361030883,0.4941552592270131,0.0416272093370581,0.6000543914847785,-80.5,-240.4375,65.75,0.81396484375,0.64453125,0.66796875
1969/12/31/18:00:10.696,190,1731183812,743962424,RU_myo,0.6268725318384967,0.5186500392435937,0.0029909205511281,0.5813983316223643,-36.375,-275.8125,49.3125,0.75927734375,0.63134765625,0.56494140625
1969/12/31/18:00:10.727,191,1731183812,773963968,RU_myo,0.620994281860245,0.5395704198589115,-0.0242928763692134,0.5680138379193473,7.5625,-210.25,48.5625,0.81201171875,0.4033203125,0.76025390625
1969/12/31/18:00:10.742,192,1731183812,787491385,RU_myo,0.6031874712753749,0.5692497831526155,-0.0457792555612761,0.5567978256399484,93.125,-212.375,76.75,0.8046875,0.43896484375,0.58544921875
1969/12/31/18:00:10.758,193,1731183812,803963042,RU_myo,0.5785838331588942,0.6045862292898878,-0.0595125263561474,0.5442191640937546,159.1875,-211.125,68.625,0.84130859375,0.56591796875,0.5888671875
1969/12/31/18:00:10.782,194,1731183812,826520728,RU_myo,0.5510564438632434,0.6369377483067062,-0.0674476484790522,0.5348812159474525,179.125,-173.5,69.1875,0.9345703125,0.60595703125,0.55224609375
1969/12/31/18:00:10.804,195,1731183812,847395880,RU_myo,0.521501018742182,0.6639005829656733,-0.0722679314361825,0.5310838441099865,181.625,-128.625,84.6875,1.00146484375,0.7265625,0.5556640625
1969/12/31/18:00:10.820,196,1731183812,863847566,RU_myo,0.4958695546211966,0.682095306855228,-0.0750762619625888,0.5321869333754571,147.4375,-75.3125,85.375,1.05078125,0.8544921875,0.43798828125
1969/12/31/18:00:10.844,197,1731183812,886258317,RU_myo,0.4746253422508036,0.6980825667852933,-0.0839261632709432,0.5294977937275877,102.8125,-97.1875,88.8125,0.767578125,0.818359375,0.251953125
1969/12/31/18:00:10.867,198,1731183812,908909144,RU_myo,0.4586909778323237,0.7127258214435188,-0.0976587577553849,0.52161983986095,61.875,-126.375,79.1875,0.8173828125,0.83154296875,0.34814453125
1969/12/31/18:00:10.867,1,1731183820,849312949,RU_myo,0.4573059857050864,0.6994486505865704,-0.2310335232105915,0.4982633157115083,1.9375,4.25,-30.5625,0.9814453125,0.50634765625,-0.162109375
1969/12/31/18:00:10.885,2,1731183820,867262394,RU_myo,0.4600974613159265,0.7022315325603257,-0.2240670974384142,0.4949496303808501,11.5,1.9375,-43.375,1.01123046875,0.5517578125,-0.11376953125
1969/12/31/18:00:10.906,3,1731183820,888291141,RU_myo,0.4633268819060463,0.7054580557331159,-0.21600761889942,0.4909153090726295,15.25,-2.125,-47.6875,1.01708984375,0.63916015625,-0.0673828125
1969/12/31/18:00:10.929,4,1731183820,909339217,RU_myo,0.4661473352610224,0.7074916541849563,-0.208811055902574,0.4884262114388767,10.3125,8.5625,-44.125,1.064453125,0.5810546875,-0.13427734375
1969/12/31/18:00:10.947,5,1731183820,927391923,RU_myo,0.4698698770429229,0.7081008630261041,-0.2018523880723494,0.4868994555951411,4.1875,14.3125,-47.625,1.1376953125,0.541015625,-0.09619140625
1969/12/31/18:00:10.969,6,1731183820,948399171,RU_myo,0.4755336164358696,0.7080207868894991,-0.1904942134381143,0.4860928919644802,6.4375,36.0625,-67.6875,1.13720703125,0.57861328125,-0.12841796875
1969/12/31/18:00:10.991,7,1731183820,969348554,RU_myo,0.4833635541752128,0.7074357359377088,-0.1797582607710571,0.4833025157165469,-6.125,27.125,-71.5,0.98193359375,0.6025390625,-0.0615234375
1969/12/31/18:00:11.010,8,1731183820,987405532,RU_myo,0.4941643640493438,0.7038301978573349,-0.1713949523530827,0.4806749465030364,-31.25,30.375,-65.1875,0.96044921875,0.64208984375,-0.0048828125
1969/12/31/18:00:11.031,9,1731183821,8338899,RU_myo,0.5113771288059277,0.6946134788507349,-0.1627275513722371,0.4790879785148874,-68.9375,54.1875,-74.375,0.998046875,0.72119140625,0.08349609375
1969/12/31/18:00:11.052,10,1731183821,29244804,RU_myo,0.5342588284422379,0.6811754284719953,-0.1511892057639007,0.4771890232790375,-97.8125,80.25,-96.625,0.93896484375,0.765625,0.107421875
1969/12/31/18:00:11.071,11,1731183821,47259620,RU_myo,0.5594591392598955,0.6659675614733493,-0.1386135397402599,0.4735810016929445,-113.4375,87.5625,-115.875,0.9521484375,0.7412109375,0.10400390625
1969/12/31/18:00:11.094,12,1731183821,69878834,RU_myo,0.5839473793035066,0.6504174008422877,-0.1253103344528168,0.4693186369253331,-109.9375,87.0625,-120.1875,0.94873046875,0.67431640625,0.19384765625
1969/12/31/18:00:11.114,13,1731183821,89178396,RU_myo,0.6063384282004133,0.6344153032731121,-0.1106595097973977,0.466503383001385,-98.125,96.5,-115.625,0.9013671875,0.60205078125,0.30517578125
1969/12/31/18:00:11.133,14,1731183821,107186278,RU_myo,0.6281001958603771,0.6149766251985713,-0.0940624297201983,0.4673822351509142,-99.5625,125.6875,-106.8125,0.86279296875,0.560546875,0.3740234375
1969/12/31/18:00:11.156,15,1731183821,129860547,RU_myo,0.6504202565942123,0.5896875092864757,-0.0753818521859846,0.472799859945455,-113.5625,164.5625,-96.6875,0.82421875,0.51611328125,0.50048828125
1969/12/31/18:00:11.177,16,1731183821,149420459,RU_myo,0.6711062403208898,0.561116841043196,-0.0543843256139984,0.481463030800471,-112.8125,193.0,-86.4375,0.77099609375,0.52197265625,0.53125
1969/12/31/18:00:11.197,17,1731183821,168586618,RU_myo,0.6905673888882348,0.5302854405745964,-0.0330818034980929,0.4907337640676513,-115.9375,201.6875,-80.4375,0.70361328125,0.53369140625,0.64404296875
1969/12/31/18:00:11.224,18,1731183821,194320549,RU_myo,0.7081691076975283,0.4970978463272427,-0.0118414762018031,0.5012484668515861,-120.1875,212.5,-69.125,0.658203125,0.55517578125,0.66845703125
1969/12/31/18:00:11.239,19,1731183821,209271081,RU_myo,0.7244219763896517,0.4618892058763477,0.0099495097869492,0.5116367548110937,-124.125,222.0625,-68.0,0.6669921875,0.5576171875,0.65283203125
1969/12/31/18:00:11.257,20,1731183821,227105922,RU_myo,0.7374497482345151,0.4251231167400594,0.0333872713362257,0.5237590042708471,-116.3125,238.4375,-56.625,0.65185546875,0.45263671875,0.701171875
1969/12/31/18:00:11.281,21,1731183821,249690085,RU_myo,0.7451071069624244,0.3910789902767472,0.0567055380001714,0.5372681867357467,-91.6875,234.3125,-33.0,0.52880859375,0.4140625,0.7587890625
1969/12/31/18:00:11.304,22,1731183821,272434887,RU_myo,0.7459328878999727,0.363353120175807,0.0818505852772983,0.552140488007786,-43.875,229.1875,-8.8125,0.53125,0.306640625,0.73291015625
1969/12/31/18:00:11.319,23,1731183821,287064072,RU_myo,0.7404846286535639,0.3415837096649364,0.111033017848556,0.5680446751504464,6.75,232.5,10.125,0.4619140625,0.283203125,0.68017578125
1969/12/31/18:00:11.343,24,1731183821,309899082,RU_myo,0.7286671997760967,0.3276499856255727,0.1443539895686437,0.5838249091856563,66.0625,229.6875,26.875,0.455078125,0.2392578125,0.60791015625
1969/12/31/18:00:11.363,25,1731183821,329916375,RU_myo,0.7098942398665568,0.3222297241836245,0.1810443951370771,0.5995340691289184,126.9375,220.125,50.5,0.41943359375,0.216796875,0.6328125
1969/12/31/18:00:11.381,26,1731183821,346487913,RU_myo,0.6848523431402,0.3227107253281852,0.2219361069213696,0.6144749142952223,176.3125,222.25,67.625,0.36181640625,0.271484375,0.513671875
1969/12/31/18:00:11.404,27,1731183821,369079993,RU_myo,0.6571386553656884,0.3272875227634052,0.2631362384619619,0.6259480689926745,199.9375,204.625,69.875,0.2373046875,0.498046875,0.44287109375
1969/12/31/18:00:11.425,28,1731183821,390110058,RU_myo,0.6299957401287152,0.3322417220735003,0.3014774692855076,0.6339023119113174,190.9375,183.75,61.8125,0.1455078125,0.86962890625,0.33837890625
1969/12/31/18:00:11.443,29,1731183821,406439850,RU_myo,0.6091538509678578,0.3283815348904884,0.331250295511279,0.6413816298567384,114.0,172.625,38.375,0.08935546875,1.02783203125,0.22216796875
1969/12/31/18:00:11.466,30,1731183821,428882276,RU_myo,0.5972535154907856,0.3123297126996781,0.349257497765792,0.6509666574051333,8.625,162.625,12.625,0.021484375,0.99365234375,0.28662109375
1969/12/31/18:00:11.487,31,1731183821,450117237,RU_myo,0.5874844900414786,0.2935286142970879,0.3599372506778804,0.6626825047667879,-32.625,147.875,18.625,0.0498046875,0.73046875,0.34130859375
1969/12/31/18:00:11.505,32,1731183821,466524278,RU_myo,0.5760199902279636,0.2776029369033356,0.3653762489673191,0.6764893029242895,-42.8125,126.1875,47.3125,0.0283203125,0.5986328125,0.39501953125
1969/12/31/18:00:11.528,33,1731183821,488937379,RU_myo,0.5617180249776851,0.2679498130666127,0.3697585347511481,0.6898944731416684,-19.5625,103.5,71.75,0.00439453125,0.55712890625,0.44921875
1969/12/31/18:00:11.549,34,1731183821,509985358,RU_myo,0.5452643227740402,0.2663145908723987,0.3768568150461127,0.6998159028998513,27.0,80.375,81.1875,-0.001953125,0.53515625,0.37548828125
1969/12/31/18:00:11.567,35,1731183821,526568830,RU_myo,0.5268130426462645,0.2728978233891146,0.3893570152984035,0.7045536961262694,71.625,61.0,81.4375,0.02783203125,0.6845703125,0.16015625
1969/12/31/18:00:11.590,36,1731183821,548833966,RU_myo,0.5099155534649903,0.2814484818083637,0.4028540403242681,0.7060322249137589,82.125,46.1875,69.4375,0.0068359375,0.8720703125,0.1650390625
1969/12/31/18:00:11.614,37,1731183821,571335584,RU_myo,0.493914551420816,0.291087307924601,0.4152373570583059,0.7063246649829069,88.0625,35.3125,66.5625,0.02392578125,0.966796875,0.29150390625
1969/12/31/18:00:11.629,38,1731183821,586553812,RU_myo,0.4806180734005225,0.2991502638729948,0.4250729315673405,0.7062778419249995,64.5,30.125,50.75,0.111328125,1.025390625,0.20849609375
1969/12/31/18:00:11.652,39,1731183821,608950841,RU_myo,0.4719680212424949,0.3019081522329772,0.4289952474511451,0.7085624405823695,15.8125,27.5625,35.6875,0.11474609375,1.0068359375,0.23828125
1969/12/31/18:00:11.676,40,1731183821,631593405,RU_myo,0.4668371291631628,0.3026384004172281,0.4287479073276746,0.7117923330506853,-6.0,16.3125,28.4375,0.083984375,0.97216796875,0.36181640625
1969/12/31/18:00:11.691,41,1731183821,646411380,RU_myo,0.4629882792435534,0.3039791207162685,0.4258759689231737,0.7154496533966632,-10.4375,4.875,29.5,0.10693359375,0.90478515625,0.46142578125
1969/12/31/18:00:11.714,42,1731183821,668734956,RU_myo,0.4608429958927577,0.3058654638965045,0.4217171203474256,0.718487801940881,-16.8125,-5.25,22.8125,0.1474609375,0.96630859375,0.4833984375
1969/12/31/18:00:11.736,43,1731183821,689966795,RU_myo,0.4599292952910616,0.3063550276132499,0.4177513068310585,0.7211764597032373,-24.9375,-2.5625,14.25,0.142578125,0.97705078125,0.427734375
1969/12/31/18:00:11.753,44,1731183821,706519064,RU_myo,0.4607233806521096,0.3051956681585251,0.4130518172857479,0.7238630857383901,-32.4375,-2.875,5.75,0.11865234375,0.93408203125,0.46875
1969/12/31/18:00:11.778,45,1731183821,730462698,RU_myo,0.4613177808607668,0.3048188671101706,0.4083986863904989,0.726279475319167,-19.75,-5.5,5.4375,0.15576171875,0.82568359375,0.5712890625
1969/12/31/18:00:11.798,46,1731183821,749934662,RU_myo,0.4603570463694749,0.3063553454956768,0.406764698621875,0.7271590418190871,3.0,-3.6875,6.0625,0.17529296875,0.8115234375,0.54736328125
1969/12/31/18:00:11.814,47,1731183821,765890210,RU_myo,0.4585807790112443,0.3090979721699642,0.408346254703211,0.7262337426694775,23.3125,-4.3125,7.0,0.09228515625,0.81201171875,0.51025390625
1969/12/31/18:00:11.838,48,1731183821,788985053,RU_myo,0.4566321662762534,0.3127634300226604,0.4118295984314773,0.7239216003256738,31.5625,-6.125,5.75,0.05517578125,0.888671875,0.44677734375
1969/12/31/18:00:11.860,49,1731183821,809870674,RU_myo,0.4552282405693592,0.3159374327148033,0.4151256723132491,0.7215410340266017,26.1875,-6.875,3.6875,0.03662109375,0.90380859375,0.40576171875
1969/12/31/18:00:11.884,50,1731183821,832492454,RU_myo,0.4541838416404696,0.3193508748102321,0.4173779208624555,0.719394000480389,24.875,-10.8125,4.6875,0.044921875,0.84423828125,0.416015625
1969/12/31/18:00:11.900,51,1731183821,848876690,RU_myo,0.4530972231263043,0.3232659158934269,0.4189760662183689,0.7173988499802579,21.1875,-11.8125,4.125,0.109375,0.89892578125,0.40771484375
1969/12/31/18:00:11.922,52,1731183821,869956117,RU_myo,0.4530285744519174,0.3248474903305179,0.4195183767458944,0.7164101830156501,13.0,-6.5,-1.0,0.11376953125,0.95703125,0.529296875
1969/12/31/18:00:11.938,53,1731183821,885818875,RU_myo,0.4537646599071698,0.3244228097130223,0.4187282172401379,0.7165990190086325,2.5625,-1.0,-5.1875,0.13623046875,0.90771484375,0.58837890625
1969/12/31/18:00:11.962,54,1731183821,909007001,RU_myo,0.4537484172690201,0.3241060123350144,0.4184080441726033,0.7169395896209189,2.8125,2.625,-3.1875,0.14501953125,0.87548828125,0.51806640625
1969/12/31/18:00:11.984,55,1731183821,929954005,RU_myo,0.4529073645546317,0.324603957506945,0.420251644873132,0.7161674000430586,13.6875,3.4375,-1.5,0.0966796875,0.89306640625,0.4619140625
1969/12/31/18:00:12.000,56,1731183821,945747194,RU_myo,0.4521620967903186,0.3251440995683082,0.4227422627388966,0.7149263822495953,20.25,2.75,-2.5,0.06201171875,0.8720703125,0.48095703125
1969/12/31/18:00:12.024,57,1731183821,969100017,RU_myo,0.45033718691101,0.3268576356612169,0.4274479967386559,0.7124947116850393,37.125,5.0,-4.0,0.087890625,0.8935546875,0.48291015625
1969/12/31/18:00:12.048,58,1731183821,991334019,RU_myo,0.447785473403321,0.3288195672333275,0.4336243188464003,0.7094616354098692,46.6875,8.4375,-4.9375,0.08642578125,0.88720703125,0.46337890625
1969/12/31/18:00:12.063,59,1731183822,5614701,RU_myo,0.4452102388694363,0.3302759257639868,0.4398389061273866,0.7065744070678084,42.1875,10.625,-5.3125,0.07568359375,0.92333984375,0.41943359375
1969/12/31/18:00:12.086,60,1731183822,29026713,RU_myo,0.4427068375206079,0.3309467079879685,0.4461249518045116,0.7038873914638978,40.8125,14.0,-5.8125,0.05322265625,0.88134765625,0.39794921875
1969/12/31/18:00:12.110,61,1731183822,51348526,RU_myo,0.4399731111024789,0.3317499804164779,0.4526693385038822,0.701039287043836,38.9375,14.625,-5.0,0.041015625,0.89794921875,0.32861328125
1969/12/31/18:00:12.132,62,1731183822,72313752,RU_myo,0.4372150065607908,0.332717995359887,0.4607146264862277,0.6970536611649073,43.0625,15.5,-10.0,0.03759765625,1.00830078125,0.2705078125
1969/12/31/18:00:12.148,63,1731183822,88946862,RU_myo,0.4349540825003994,0.3330822941628795,0.4713935418398238,0.6911289750423831,56.0,18.4375,-19.5625,-0.02978515625,1.07080078125,0.27001953125
1969/12/31/18:00:12.172,64,1731183822,111566796,RU_myo,0.4334422913524266,0.3345581184203141,0.4845934869802725,0.6821787140057345,75.125,12.375,-31.375,-0.05078125,1.00732421875,0.20458984375
1969/12/31/18:00:12.194,65,1731183822,132475551,RU_myo,0.4326325422651093,0.3383298789186654,0.4987969999140058,0.6704949882593433,90.0,-0.5,-39.4375,-0.02978515625,0.89892578125,0.1259765625
1969/12/31/18:00:12.217,66,1731183822,154943227,RU_myo,0.4315467672273392,0.3452984529285796,0.5123015583223561,0.6573305709011621,108.5,-15.8125,-34.6875,0.005859375,0.888671875,0.1923828125
1969/12/31/18:00:12.234,67,1731183822,171528878,RU_myo,0.4291611902231889,0.3538397695525282,0.5246252922725513,0.6445047656900371,111.125,-19.5625,-23.3125,0.08837890625,0.9501953125,0.271484375
1969/12/31/18:00:12.256,68,1731183822,192441593,RU_myo,0.4289962440764466,0.3595315705193896,0.5323386802206447,0.6350707062281375,68.5,-20.0,-26.0,0.0654296875,1.22021484375,0.1767578125
1969/12/31/18:00:12.272,69,1731183822,209048528,RU_myo,0.4355122348126092,0.3581149658928631,0.5343341420531998,0.6297378733793537,-2.4375,-21.5625,-42.0625,-0.06396484375,1.3935546875,0.11474609375
1969/12/31/18:00:12.302,70,1731183822,237461849,RU_myo,0.4469272651105135,0.3518896043925308,0.5314051857487204,0.627724664626676,-41.375,-24.3125,-56.625,-0.0771484375,1.10546875,0.24462890625
1969/12/31/18:00:12.318,71,1731183822,252435658,RU_myo,0.459312987962774,0.3449883067063918,0.5269433920375586,0.62637473521249,-48.0625,-25.875,-63.75,0.0068359375,0.90185546875,0.28271484375
1969/12/31/18:00:12.335,72,1731183822,268970530,RU_myo,0.4700619617857806,0.3374240390536028,0.5244477828416344,0.6246129145505639,-41.3125,-14.0,-67.3125,0.0166015625,0.95556640625,0.271484375
1969/12/31/18:00:12.358,73,1731183822,291444825,RU_myo,0.4794587389138701,0.3291815377418843,0.5248104694056595,0.6215567585435952,-24.375,-2.5625,-70.375,-0.0517578125,0.98681640625,0.3125
1969/12/31/18:00:12.381,74,1731183822,314018386,RU_myo,0.4867228771972729,0.3222234849165292,0.5271915588604021,0.6175288874598458,-0.8125,3.1875,-63.0,-0.0927734375,0.85009765625,0.37451171875
1969/12/31/18:00:12.404,75,1731183822,335064227,RU_myo,0.4930156769231856,0.3155739816383396,0.5297003892954568,0.6138127580957725,-1.3125,5.75,-57.25,-0.12158203125,0.84375,0.3447265625
1969/12/31/18:00:12.420,76,1731183822,351525019,RU_myo,0.4988211111883614,0.3081923385205625,0.5318438988967441,0.6110131330146228,-11.125,9.875,-53.6875,-0.16650390625,0.96044921875,0.30517578125
1969/12/31/18:00:12.443,77,1731183822,373907475,RU_myo,0.5046060234963563,0.2987228594400832,0.5324396205345006,0.6104469385492995,-28.5,15.875,-47.8125,-0.232421875,0.93310546875,0.32275390625
1969/12/31/18:00:12.460,78,1731183822,389557136,RU_myo,0.509488677905066,0.2882850156637866,0.532072937019104,0.6117282292996972,-36.1875,23.0,-40.4375,-0.22119140625,0.7978515625,0.33935546875
1969/12/31/18:00:12.482,79,1731183822,411393052,RU_myo,0.5123561128924118,0.2791284851390277,0.5323766996244479,0.6133135837911549,-28.5625,26.8125,-28.5,-0.2548828125,0.80126953125,0.33837890625
1969/12/31/18:00:12.504,80,1731183822,432443296,RU_myo,0.5142974448391968,0.2721027781976192,0.5335240879823664,0.6138487304471638,-14.1875,22.5,-22.0,-0.283203125,0.7890625,0.34814453125
1969/12/31/18:00:12.521,81,1731183822,448998833,RU_myo,0.5153511040385198,0.2669229394718047,0.5357991224979423,0.6132574371994561,-1.5,20.75,-19.875,-0.26513671875,0.78857421875,0.326171875
1969/12/31/18:00:12.545,82,1731183822,471478943,RU_myo,0.5144374828293395,0.2645434326746983,0.539585589488771,0.6117337984000524,14.625,18.625,-8.375,-0.28564453125,0.771484375,0.26513671875
1969/12/31/18:00:12.566,83,1731183822,492472669,RU_myo,0.512596262569367,0.2638668305652981,0.5430541733840983,0.6105010500379624,18.6875,15.375,0.4375,-0.27294921875,0.7861328125,0.2578125
1969/12/31/18:00:12.583,84,1731183822,509014625,RU_myo,0.5103986928942913,0.2645381409954387,0.546227924265847,0.6092190090621766,23.25,13.0,-0.5,-0.17138671875,0.78662109375,0.2646484375
1969/12/31/18:00:12.607,85,1731183822,531363908,RU_myo,0.5077827289086552,0.265946550048685,0.5489839961298767,0.6083138209284358,22.5,11.0625,4.125,-0.1708984375,0.8251953125,0.2568359375
1969/12/31/18:00:12.628,86,1731183822,552487019,RU_myo,0.5063813138845302,0.2666192838774865,0.5494749985039225,0.6087440746589223,0.875,3.875,5.5625,-0.18701171875,0.8837890625,0.18359375
1969/12/31/18:00:12.645,87,1731183822,568800762,RU_myo,0.5049020808771663,0.2673441869248051,0.5479945457102513,0.6109852308486986,-11.6875,0.5,15.125,-0.18017578125,0.80419921875,0.15966796875
1969/12/31/18:00:12.668,88,1731183822,591178589,RU_myo,0.5022709159293823,0.2702094233587769,0.5462173321973559,0.6134797637630601,-2.125,-2.1875,24.5,-0.14111328125,0.845703125,0.22607421875
1969/12/31/18:00:12.690,89,1731183822,612507737,RU_myo,0.4993051852388598,0.2726035400093823,0.544962921003978,0.6159521545532194,0.75,2.75,21.3125,-0.1279296875,0.953125,0.279296875
1969/12/31/18:00:12.707,90,1731183822,628866292,RU_myo,0.4972824691341418,0.2739417848869558,0.5437329366695638,0.6180781002150879,-6.3125,1.25,18.75,-0.17236328125,0.861328125,0.20556640625
1969/12/31/18:00:12.731,91,1731183822,651325551,RU_myo,0.4949571990345292,0.2777839700093898,0.542383730499547,0.619413695375805,-0.5625,-9.125,24.1875,-0.1533203125,0.87939453125,0.1455078125
1969/12/31/18:00:12.752,92,1731183822,672418579,RU_myo,0.492715640935812,0.2820052355207447,0.5407541951251683,0.6207167186169812,5.8125,-9.125,22.875,-0.11376953125,0.94384765625,0.25439453125
1969/12/31/18:00:12.768,93,1731183822,688152570,RU_myo,0.4912509605471269,0.2843859623743867,0.5388012212660896,0.6224872385262924,-4.125,-5.5,14.875,-0.0888671875,0.94384765625,0.2431640625
1969/12/31/18:00:12.793,94,1731183822,711382707,RU_myo,0.4899106706290074,0.2871953283465587,0.5365455762308716,0.6241996658176215,-7.875,-8.9375,17.0,-0.09423828125,0.951171875,0.19140625
1969/12/31/18:00:12.814,95,1731183822,732377461,RU_myo,0.4880029524801196,0.2908485389077886,0.5338428795986399,0.6263162345714205,0.6875,-9.0625,22.9375,-0.0712890625,0.94677734375,0.310546875
1969/12/31/18:00:12.830,96,1731183822,748198383,RU_myo,0.4859234970526338,0.2934706913489591,0.5315799190844602,0.6286303349007758,1.875,-3.875,22.5,-0.0947265625,0.90673828125,0.3447265625
1969/12/31/18:00:12.854,97,1731183822,771232928,RU_myo,0.4836647226494646,0.2962782134957725,0.5304197930115911,0.6300337288222835,3.5625,-3.6875,22.0,-0.13330078125,0.95556640625,0.2685546875
1969/12/31/18:00:12.877,98,1731183822,792412715,RU_myo,0.4815349659159466,0.2989679633738504,0.5286569070602122,0.6318734905769906,0.0625,-4.6875,22.1875,-0.109375,0.9853515625,0.28466796875
1969/12/31/18:00:12.893,99,1731183822,808389627,RU_myo,0.4798819385484302,0.3011011959882226,0.5260267802607952,0.6343084590937785,-8.75,-4.5625,19.625,-0.06787109375,0.99951171875,0.2705078125
1969/12/31/18:00:12.916,100,1731183822,831153420,RU_myo,0.4792930812341506,0.3014809638583125,0.5223879507389023,0.637572113282056,-19.75,-3.1875,15.6875,-0.07470703125,0.94970703125,0.2880859375
1969/12/31/18:00:12.939,101,1731183822,852489884,RU_myo,0.478420402437256,0.3025072103188365,0.519255213515404,0.6402947207918877,-10.375,-3.5,15.5,-0.05419921875,0.90478515625,0.3359375
1969/12/31/18:00:12.955,102,1731183822,868314422,RU_myo,0.476097990060647,0.3045195990272523,0.5180312361082964,0.6420608663394802,6.9375,1.125,17.0625,-0.03369140625,0.93701171875,0.37890625
1969/12/31/18:00:12.979,103,1731183822,891293462,RU_myo,0.4734758319110407,0.30568092899452,0.5181560315963419,0.6433460446490098,4.625,6.75,13.9375,-0.06884765625,1.01806640625,0.2978515625
1969/12/31/18:00:13.001,104,1731183822,912366956,RU_myo,0.4717652161665873,0.306046163004175,0.5179101900858446,0.6446257533879323,-3.9375,4.9375,11.875,-0.107421875,0.9970703125,0.23828125
1969/12/31/18:00:13.017,105,1731183822,928879020,RU_myo,0.4701777108316538,0.3072055586934588,0.5172992469555064,0.6457237443707732,3.25,1.1875,13.125,-0.08251953125,0.916015625,0.30859375
1969/12/31/18:00:13.040,106,1731183822,951140546,RU_myo,0.4678015288682766,0.3088564373791075,0.5175481684856625,0.6464621597395509,12.4375,3.8125,13.0625,-0.05078125,0.92578125,0.33984375
1969/12/31/18:00:13.064,107,1731183822,973861812,RU_myo,0.4659018735473187,0.3097670651451123,0.518272344856581,0.6468180471611341,5.1875,5.25,7.1875,-0.0576171875,1.03369140625,0.2607421875
1969/12/31/18:00:13.079,108,1731183822,988919448,RU_myo,0.4651957751737995,0.3097846160618072,0.5182406680521662,0.6473430252877764,-1.0,2.9375,3.4375,-0.0732421875,0.9755859375,0.265625
1969/12/31/18:00:13.103,109,1731183823,11532779,RU_myo,0.464443967136852,0.3107483554598125,0.5182191195941482,0.6474381862821119,4.1875,-0.6875,3.9375,-0.05078125,0.94140625,0.275390625
1969/12/31/18:00:13.126,110,1731183823,34016051,RU_myo,0.4639544029370816,0.3110527085077447,0.5177904486403452,0.6479857836574212,-3.0625,0.5,3.125,-0.05029296875,0.98388671875,0.25390625
1969/12/31/18:00:13.141,111,1731183823,49120204,RU_myo,0.4643067153298706,0.3109213103576128,0.5170424852845187,0.6483936160048923,-10.0,-1.4375,-1.5,-0.05029296875,1.009765625,0.2119140625
1969/12/31/18:00:13.165,112,1731183823,71699778,RU_myo,0.464804206232648,0.3105612345780319,0.5162592221031829,0.6488337113923899,-1.5,-0.9375,-1.1875,-0.05810546875,0.884765625,0.32373046875
1969/12/31/18:00:13.188,113,1731183823,94105779,RU_myo,0.4632877155706801,0.3123987520804665,0.5168801548685796,0.6485417625742392,18.25,-0.1875,6.75,-0.02880859375,0.8291015625,0.3427734375
1969/12/31/18:00:13.203,114,1731183823,108391479,RU_myo,0.4610882900869985,0.3141675177492429,0.518464910775611,0.6479895800322446,15.3125,3.8125,7.6875,-0.05029296875,0.99560546875,0.2626953125
1969/12/31/18:00:13.234,115,1731183823,138166071,RU_myo,0.4601126258893175,0.3145344071647191,0.5192594996604436,0.6478688526385269,2.25,2.0625,5.5,-0.1142578125,0.9794921875,0.21044921875
1969/12/31/18:00:13.250,116,1731183823,154058940,RU_myo,0.4597477385858802,0.315939231933154,0.5189558249412047,0.6476876333158226,4.4375,-6.25,9.5,-0.11669921875,0.82421875,0.236328125
1969/12/31/18:00:13.272,117,1731183823,174905307,RU_myo,0.4582820961834986,0.3186855120103951,0.5189550321992681,0.6473814480716816,14.9375,-6.6875,15.0,-0.08642578125,0.822265625,0.2822265625
1969/12/31/18:00:13.289,118,1731183823,191336945,RU_myo,0.4565092499217251,0.3210030947103025,0.520233766156286,0.6464620224523319,12.625,-0.6875,4.125,-0.00927734375,1.22705078125,0.25732421875
1969/12/31/18:00:13.312,119,1731183823,213847919,RU_myo,0.4575314616159328,0.3183066398515327,0.5200330913777678,0.6472336738227523,-12.5,7.9375,-10.375,-0.060546875,1.1611328125,0.302734375
1969/12/31/18:00:13.334,120,1731183823,234966025,RU_myo,0.4599231162130853,0.3145300355469181,0.516688676674687,0.6500572246409234,-35.0625,3.3125,-6.625,-0.06103515625,0.85595703125,0.2353515625
1969/12/31/18:00:13.351,121,1731183823,251605377,RU_myo,0.4614927966635466,0.3139078763709325,0.5139226752952073,0.6514366643023454,-16.5,-6.0,-2.5,-0.00927734375,0.85205078125,0.28466796875
1969/12/31/18:00:13.375,122,1731183823,274130840,RU_myo,0.4609672357724019,0.3136799026263736,0.5139491691212426,0.6518975209281319,7.3125,5.0625,-2.75,0.00927734375,0.95947265625,0.39453125
1969/12/31/18:00:13.396,123,1731183823,294984185,RU_myo,0.4590840294322603,0.3120990084413172,0.5160346210371398,0.6523375910839736,9.5625,18.8125,-2.75,-0.0283203125,0.9990234375,0.34326171875
1969/12/31/18:00:13.421,124,1731183823,319046793,RU_myo,0.4573702601238786,0.3099594529439551,0.5176164161017603,0.6533076063133422,-1.375,18.5,1.1875,-0.09130859375,0.94482421875,0.240234375
1969/12/31/18:00:13.436,125,1731183823,333945253,RU_myo,0.4565030394566854,0.3087911320512598,0.5171747898537901,0.6548154308452095,-10.6875,8.5625,4.1875,-0.0537109375,0.8525390625,0.20068359375
1969/12/31/18:00:13.458,126,1731183823,354961449,RU_myo,0.4557039473226877,0.3093366735911306,0.5165580640492776,0.6556008703714157,-4.25,0.5,4.8125,-0.02001953125,0.875,0.212890625
1969/12/31/18:00:13.475,127,1731183823,371609755,RU_myo,0.4545434059737271,0.310617885457271,0.5170454131869803,0.65541655610929,5.0,0.5625,2.625,0.00244140625,0.916015625,0.2197265625
1969/12/31/18:00:13.498,128,1731183823,394035814,RU_myo,0.4530256139849544,0.311722151794821,0.5175430047128036,0.655550403422044,2.75,3.0625,3.1875,0.0166015625,0.95068359375,0.2060546875
1969/12/31/18:00:13.520,129,1731183823,414965473,RU_myo,0.4519340282884527,0.3123374422949773,0.5171849029832604,0.6562931756020318,-7.1875,1.9375,5.625,-0.0146484375,0.97021484375,0.16455078125
1969/12/31/18:00:13.537,130,1731183823,432082054,RU_myo,0.4528946335912341,0.3120212084795672,0.5145420163307417,0.6578569219469436,-26.125,-6.5625,4.625,-0.06396484375,0.97216796875,0.146484375
1969/12/31/18:00:13.560,131,1731183823,454108871,RU_myo,0.4559688008458024,0.3113650405775687,0.5095008809451022,0.6599644812242056,-42.375,-16.3125,-0.125,-0.0341796875,0.90380859375,0.11962890625
1969/12/31/18:00:13.582,132,1731183823,474878260,RU_myo,0.4615151561345443,0.310382828851231,0.5012514828960294,0.6628825017353724,-63.375,-27.9375,-6.8125,0.02685546875,0.88623046875,0.11572265625
1969/12/31/18:00:13.600,133,1731183823,491264858,RU_myo,0.4698224896905245,0.3086166698551763,0.4895383093826175,0.6666144484747588,-86.375,-39.5,-13.125,0.05908203125,0.91943359375,0.14794921875
1969/12/31/18:00:13.622,134,1731183823,513956514,RU_myo,0.4822063359464499,0.3053159610638155,0.4724401316741168,0.6716096600530113,-115.5,-59.4375,-14.4375,0.04052734375,0.98486328125,0.04345703125
1969/12/31/18:00:13.644,135,1731183823,535027295,RU_myo,0.4986789837715253,0.3019540921319138,0.4475292911888401,0.6781301725461011,-160.9375,-89.0625,-11.625,0.00244140625,1.04833984375,-0.10107421875
1969/12/31/18:00:13.662,136,1731183823,551309833,RU_myo,0.5193877450929547,0.296958676680835,0.4115914402587606,0.6874913824164942,-223.3125,-120.3125,-4.8125,-0.0087890625,0.9150390625,-0.11328125
1969/12/31/18:00:13.684,137,1731183823,574042666,RU_myo,0.5433801511348282,0.2899411051326032,0.365692033863037,0.6978119397633515,-273.9375,-147.75,-3.3125,0.05517578125,0.60791015625,-0.052734375
1969/12/31/18:00:13.706,138,1731183823,595019175,RU_myo,0.5681034932752725,0.2832277005261915,0.3153960190988861,0.705383471396696,-281.6875,-167.25,-8.125,0.19091796875,0.36083984375,0.12744140625
1969/12/31/18:00:13.724,139,1731183823,611619630,RU_myo,0.5912224876508838,0.2799852932949209,0.2664346643192347,0.7078677668064526,-248.6875,-181.25,-15.25,0.30517578125,0.171875,0.32568359375
1969/12/31/18:00:13.746,140,1731183823,634070855,RU_myo,0.6103797803929962,0.284192825750979,0.2228496578214829,0.7049886463539107,-185.25,-194.875,-15.625,0.40625,0.1171875,0.47509765625
1969/12/31/18:00:13.768,141,1731183823,654994862,RU_myo,0.6233226869781165,0.2978666972633381,0.1863498005624941,0.6985828586432181,-108.25,-206.3125,-1.875,0.42138671875,0.142578125,0.55859375
1969/12/31/18:00:13.785,142,1731183823,670847070,RU_myo,0.6307161211920388,0.3209431302843066,0.1555884441032136,0.6891914956333408,-39.9375,-224.0625,10.8125,0.3828125,0.244140625,0.607421875
1969/12/31/18:00:13.808,143,1731183823,694044119,RU_myo,0.6344453336671803,0.3510996304842814,0.1276947891121551,0.6766847189757899,4.5,-244.3125,16.0,0.4443359375,0.44091796875,0.62060546875
1969/12/31/18:00:13.830,144,1731183823,714991689,RU_myo,0.6371966549596914,0.384613097317848,0.0984575346728596,0.6605749784436996,13.875,-268.5,12.4375,0.53271484375,0.62451171875,0.60888671875
1969/12/31/18:00:13.847,145,1731183823,730874505,RU_myo,0.6401330198623781,0.4155645655786278,0.0645199391622517,0.6429408885487202,-13.375,-277.8125,13.6875,0.78955078125,0.67333984375,0.57373046875
1969/12/31/18:00:13.871,146,1731183823,753918735,RU_myo,0.6427919992509378,0.4428922938528919,0.0262463735331785,0.6244805758556969,-42.375,-281.125,20.5625,0.94091796875,0.7421875,0.5283203125
1969/12/31/18:00:13.892,147,1731183823,775068112,RU_myo,0.6431533191992841,0.4703558392094223,-0.0139776131818008,0.6040892474248186,-39.625,-296.5625,26.4375,0.9375,0.62353515625,0.685546875
1969/12/31/18:00:13.909,148,1731183823,790719801,RU_myo,0.640411278000913,0.4997795981959089,-0.0548121738128879,0.5805939836394095,-25.0625,-315.3125,26.375,0.89453125,0.4287109375,0.587890625
1969/12/31/18:00:13.934,149,1731183823,814188953,RU_myo,0.6324966649886806,0.533672876085315,-0.0957717880107353,0.5531446417802957,-3.5625,-329.75,22.125,1.50244140625,0.3798828125,-0.34326171875
1969/12/31/18:00:13.954,150,1731183823,834993164,RU_myo,0.6185546648883155,0.5697856519372828,-0.130376234872848,0.5251061557168125,54.0,-337.375,23.0,1.208984375,0.4541015625,0.76904296875
1969/12/31/18:00:13.971,151,1731183823,850873707,RU_myo,0.5980538910923155,0.6027538451251905,-0.1539997925317322,0.5052755777160837,103.9375,-268.125,37.5,1.2333984375,0.40234375,0.71630859375
1969/12/31/18:00:13.995,152,1731183823,873936486,RU_myo,0.5766215947743007,0.632531976992281,-0.1748725382691194,0.4866522679300836,104.625,-248.375,42.125,0.91748046875,0.4931640625,0.66796875
1969/12/31/18:00:13.995,1,1731183829,882223871,RU_myo,0.4573562505989975,0.7012022697025603,-0.1723707529282756,0.5190654684497364,2.6875,-2.8125,-46.3125,1.0673828125,0.69482421875,-0.15380859375
1969/12/31/18:00:14.011,2,1731183829,897338031,RU_myo,0.463161519759777,0.7040201593185645,-0.1634005519763999,0.5129690843517615,3.0,0.9375,-61.3125,1.001953125,0.7265625,-0.1259765625
1969/12/31/18:00:14.027,3,1731183829,912263661,RU_myo,0.4700600449531716,0.7061582469891239,-0.1554048661798175,0.5061950334757372,-5.625,-4.9375,-71.0,1.0087890625,0.62109375,-0.0703125
1969/12/31/18:00:14.046,4,1731183829,931941297,RU_myo,0.4771881886096987,0.7077864204551121,-0.1455735264561437,0.5001381449818203,0.0625,0.8125,-76.5625,1.08984375,0.708984375,-0.01123046875
1969/12/31/18:00:14.070,5,1731183829,954407985,RU_myo,0.48471303696506,0.7088493260641282,-0.1326383867680488,0.4949676384271089,10.875,9.1875,-84.5625,1.05224609375,0.78271484375,0.0888671875
1969/12/31/18:00:14.097,6,1731183829,981117050,RU_myo,0.493865974186381,0.7081736537523659,-0.1190259114650158,0.4903257163069087,3.0625,18.25,-92.1875,0.98828125,0.73388671875,0.1298828125
1969/12/31/18:00:14.108,7,1731183829,991951034,RU_myo,0.5050860758688626,0.7054724912256572,-0.1055339970002735,0.4858592343101083,-10.625,24.5625,-96.125,0.97998046875,0.77294921875,0.1650390625
1969/12/31/18:00:14.132,8,1731183830,14477861,RU_myo,0.5181612102259253,0.7026825129132822,-0.090948309958373,0.4790351252035648,-23.125,28.625,-113.875,0.958984375,0.7880859375,0.119140625
1969/12/31/18:00:14.151,9,1731183830,32302398,RU_myo,0.5334787165729431,0.6981002381515732,-0.0741010482745483,0.4717685355139905,-32.3125,40.5625,-130.3125,0.92529296875,0.744140625,0.07373046875
1969/12/31/18:00:14.171,10,1731183830,52009494,RU_myo,0.5490898266864723,0.6918556231092889,-0.0548113232952925,0.4656520995766003,-30.375,56.3125,-137.8125,0.93798828125,0.751953125,0.16455078125
1969/12/31/18:00:14.194,11,1731183830,74399480,RU_myo,0.5656459401225602,0.682107842977189,-0.0348531166299753,0.4621242486962235,-41.75,78.0,-134.5625,0.90966796875,0.724609375,0.2685546875
1969/12/31/18:00:14.212,12,1731183830,92036748,RU_myo,0.5854299503423473,0.666551460508647,-0.0143442850933637,0.4612755848959565,-71.4375,106.625,-134.8125,0.81689453125,0.76904296875,0.2880859375
1969/12/31/18:00:14.233,13,1731183830,111883437,RU_myo,0.610027857324282,0.6452475965354197,0.0063480985753177,0.4598709102542666,-108.6875,121.4375,-149.125,0.73193359375,0.7978515625,0.314453125
1969/12/31/18:00:14.251,14,1731183830,129734493,RU_myo,0.64153279027455,0.6120503604265378,0.0244771311988672,0.4617693204973331,-182.9375,155.9375,-147.5625,0.67236328125,0.73095703125,0.3876953125
1969/12/31/18:00:14.274,15,1731183830,152116008,RU_myo,0.6761810157176429,0.5684486188281647,0.0408345459031506,0.4668810786445433,-237.75,188.5625,-139.4375,0.6201171875,0.71044921875,0.4580078125
1969/12/31/18:00:14.297,16,1731183830,173368453,RU_myo,0.7089421943039709,0.5183243318148361,0.0569473153065522,0.4748661447856128,-257.375,215.875,-125.625,0.630859375,0.60986328125,0.5625
1969/12/31/18:00:14.318,17,1731183830,195079844,RU_myo,0.7349090510034934,0.4672532213813739,0.0726363596922057,0.4861142593182575,-242.0625,229.9375,-94.3125,0.6357421875,0.45703125,0.6513671875
1969/12/31/18:00:14.336,18,1731183830,211395089,RU_myo,0.7519230163722781,0.422563766729871,0.0889929180835117,0.4981283981341149,-190.875,221.625,-64.5625,0.59814453125,0.4990234375,0.66162109375
1969/12/31/18:00:14.358,19,1731183830,232481649,RU_myo,0.7616033387215201,0.3828465288499939,0.1068820586760745,0.5118252781261478,-148.0,223.125,-37.8125,0.599609375,0.42431640625,0.6513671875
1969/12/31/18:00:14.380,20,1731183830,254979346,RU_myo,0.7626973618088532,0.3518967819790347,0.1275129883008158,0.5274484116358784,-83.1875,219.9375,-5.4375,0.57958984375,0.28955078125,0.62255859375
1969/12/31/18:00:14.398,21,1731183830,271435689,RU_myo,0.7554880167560718,0.3346194803148408,0.1521108619016022,0.5423374831443563,7.6875,199.3125,19.3125,0.46875,0.2080078125,0.68603515625
1969/12/31/18:00:14.420,22,1731183830,292571296,RU_myo,0.7404683895927296,0.3301618596411734,0.1829959798861597,0.5560685045906988,96.375,191.6875,38.375,0.44921875,0.28369140625,0.57568359375
1969/12/31/18:00:14.436,23,1731183830,308306326,RU_myo,0.7197028559553347,0.332353663868781,0.2183340781742203,0.5691213153191027,147.75,194.4375,52.0625,0.439453125,0.3916015625,0.38232421875
1969/12/31/18:00:14.460,24,1731183830,331381913,RU_myo,0.6944236780459844,0.3359504196154608,0.2571510025145233,0.5820536339849263,170.5,209.3125,61.5625,0.39404296875,0.599609375,0.28759765625
1969/12/31/18:00:14.485,25,1731183830,355248015,RU_myo,0.6696980849291375,0.3392437072581249,0.2914517276282019,0.5928524880529268,156.625,185.3125,61.375,0.240234375,0.92138671875,0.509765625
1969/12/31/18:00:14.497,26,1731183830,368157182,RU_myo,0.6479109170139995,0.3424802784140887,0.3233145668792421,0.5986538176234864,146.1875,160.4375,37.3125,0.15869140625,1.1689453125,0.291015625
1969/12/31/18:00:14.522,27,1731183830,391402266,RU_myo,0.6361310360947524,0.3340572980758568,0.3489504061939839,0.601644945575319,68.25,152.0625,-14.9375,0.02783203125,0.78515625,0.0849609375
1969/12/31/18:00:14.544,28,1731183830,412444541,RU_myo,0.6266093074176375,0.3220329929802704,0.3684824068654079,0.6065280233595426,27.625,140.9375,-11.3125,-0.029296875,0.62158203125,0.09521484375
1969/12/31/18:00:14.559,29,1731183830,428225567,RU_myo,0.61326303056267,0.3165504206726393,0.3859522387028727,0.6121643210424025,51.8125,120.125,22.5625,-0.03857421875,0.6015625,0.208984375
1969/12/31/18:00:14.584,30,1731183830,451670072,RU_myo,0.5965936836475301,0.3192331661015533,0.4038330070607795,0.6156988425365906,87.125,97.0,43.0,-0.04345703125,0.65087890625,0.22705078125
1969/12/31/18:00:14.606,31,1731183830,472481627,RU_myo,0.5800348097388237,0.323618284882168,0.4229255179080616,0.6164128742031337,108.6875,89.3125,35.875,-0.0400390625,0.6630859375,0.18798828125
1969/12/31/18:00:14.623,32,1731183830,488188863,RU_myo,0.5629616180793514,0.3309528237261459,0.4421656685857987,0.6148446686450512,126.6875,76.6875,36.75,-0.0400390625,0.68359375,0.205078125
1969/12/31/18:00:14.646,33,1731183830,511481805,RU_myo,0.5455615951763252,0.3405945067222974,0.4586428536758679,0.6131921889842652,123.9375,60.0625,48.5,-0.05322265625,0.95703125,0.2216796875
1969/12/31/18:00:14.669,34,1731183830,533977627,RU_myo,0.5317811754513566,0.3465855732567496,0.471839817061408,0.6119268002639864,86.625,53.4375,32.9375,-0.07275390625,1.17822265625,0.26025390625
1969/12/31/18:00:14.685,35,1731183830,548336097,RU_myo,0.5231139353248471,0.3473183537921096,0.4810572840484386,0.6118052478134121,44.1875,48.5625,12.375,-0.07080078125,1.13232421875,0.2373046875
1969/12/31/18:00:14.708,36,1731183830,571381463,RU_myo,0.5172423933543902,0.3463338848115187,0.4844645829659894,0.6146602432238268,7.125,35.1875,18.6875,-0.06640625,1.00537109375,0.22021484375
1969/12/31/18:00:14.731,37,1731183830,593777204,RU_myo,0.5139464711091294,0.3441976425872186,0.4839764334233119,0.6189941999427174,-18.875,23.75,19.0625,-0.06787109375,1.02001953125,0.23779296875
1969/12/31/18:00:14.753,38,1731183830,614933539,RU_myo,0.5121187900537857,0.341086984364786,0.4840407634238999,0.6221724466052727,-11.8125,22.9375,5.875,-0.04833984375,0.82763671875,0.294921875
1969/12/31/18:00:14.770,39,1731183830,631355654,RU_myo,0.5081591994288889,0.342130007543414,0.486673068714298,0.6227925900027571,15.1875,17.0,10.3125,-0.00732421875,0.7646484375,0.18505859375
1969/12/31/18:00:14.793,40,1731183830,653899527,RU_myo,0.5028318484801864,0.3457197851167486,0.4900748860703345,0.622466519883581,25.375,9.875,23.875,-0.09228515625,0.8916015625,0.1357421875
1969/12/31/18:00:14.815,41,1731183830,674981983,RU_myo,0.4977726548064706,0.3514012475439425,0.4938051229165355,0.6203999096815411,40.125,-0.625,24.125,-0.1142578125,1.02783203125,0.205078125
1969/12/31/18:00:14.833,42,1731183830,691341799,RU_myo,0.4943485842981601,0.3551203930666373,0.4967290750732716,0.6186834486289852,30.5625,0.875,12.625,-0.06298828125,0.9912109375,0.2265625
1969/12/31/18:00:14.855,43,1731183830,713912259,RU_myo,0.492700790856087,0.3557919858647337,0.4957527035843828,0.6203928194079866,-3.3125,4.0625,10.625,0.013671875,0.9580078125,0.25
1969/12/31/18:00:14.877,44,1731183830,734938861,RU_myo,0.4912956828009452,0.355669020211344,0.4932489020641618,0.623565249781893,-15.9375,5.625,12.0625,0.0537109375,0.97216796875,0.2587890625
1969/12/31/18:00:14.895,45,1731183830,751393616,RU_myo,0.490320407620921,0.3545712993738242,0.491602211250952,0.6262526306723079,-14.375,9.0,6.1875,0.03564453125,0.96142578125,0.26416015625
1969/12/31/18:00:14.919,46,1731183830,775301978,RU_myo,0.4889341445368464,0.3535463876601016,0.4908874394962945,0.6284726532024183,-8.8125,10.75,6.1875,0.01953125,0.89208984375,0.25
1969/12/31/18:00:14.939,47,1731183830,794867343,RU_myo,0.4863044388374601,0.3537869370530839,0.4905161880880921,0.6306636703989756,0.9375,10.6875,15.5,-0.00390625,0.84326171875,0.27001953125
1969/12/31/18:00:14.957,48,1731183830,811338353,RU_myo,0.4823769600496608,0.3559078899214946,0.4917156510388545,0.6315518670927294,15.75,7.8125,21.75,-0.04736328125,0.9130859375,0.251953125
1969/12/31/18:00:14.979,49,1731183830,833903269,RU_myo,0.4788451356139164,0.3586608052093528,0.4941657384232336,0.6307693602847945,22.1875,5.0,13.5,-0.02978515625,1.0078125,0.21044921875
1969/12/31/18:00:15.001,50,1731183830,854985114,RU_myo,0.4767206042567984,0.359768404800201,0.4957039727489706,0.6305408248364569,12.9375,5.8125,6.8125,-0.01513671875,0.98828125,0.2451171875
1969/12/31/18:00:15.019,51,1731183830,871442970,RU_myo,0.4744638280708264,0.3617840099029702,0.4960109438959906,0.6308482777707436,10.0625,1.0625,12.8125,0.00830078125,0.95361328125,0.23681640625
1969/12/31/18:00:15.041,52,1731183830,893828108,RU_myo,0.4725645508964831,0.3632435601117245,0.4957594009792348,0.6316323912008276,2.6875,1.1875,12.125,0.0107421875,1.0146484375,0.22900390625
1969/12/31/18:00:15.063,53,1731183830,914874130,RU_myo,0.471954370232848,0.3634878782639174,0.4951492306426361,0.6324261808047773,-6.125,0.625,7.9375,-0.0322265625,0.9658203125,0.18994140625
1969/12/31/18:00:15.081,54,1731183830,931651672,RU_myo,0.4711671525891233,0.3644693701398698,0.4934467238671424,0.6337775029580084,-7.125,-3.3125,13.0625,-0.009765625,0.8623046875,0.20068359375
1969/12/31/18:00:15.104,55,1731183830,954062821,RU_myo,0.468771749059846,0.367936992621452,0.4918441085838853,0.6347950768518748,8.625,-7.5625,22.375,0.0400390625,0.8408203125,0.25341796875
1969/12/31/18:00:15.125,56,1731183830,974958736,RU_myo,0.4649981123611368,0.3725844680824861,0.4916723280479072,0.6349928278935294,17.875,-5.3125,23.875,0.068359375,1.05029296875,0.24169921875
1969/12/31/18:00:15.143,57,1731183830,991582723,RU_myo,0.4637258508679089,0.3733246418202094,0.4917435112007206,0.63543321146965,-0.0625,2.3125,5.875,0.05126953125,1.19482421875,0.23974609375
1969/12/31/18:00:15.166,58,1731183831,14026759,RU_myo,0.4649932441306392,0.3705052496551562,0.4889814752862366,0.6382822727584792,-21.5,5.8125,-0.5625,0.04150390625,1.0390625,0.3583984375
1969/12/31/18:00:15.187,59,1731183831,34980359,RU_myo,0.4654164396370198,0.3690370877436619,0.4866577407509455,0.6405961356053146,-14.25,3.8125,1.1875,0.080078125,0.92724609375,0.3291015625
1969/12/31/18:00:15.205,60,1731183831,51437174,RU_myo,0.4649845821768659,0.3686061816442759,0.4855542598079507,0.6419936775185451,-6.875,3.5,4.0625,0.0556640625,0.91943359375,0.263671875
1969/12/31/18:00:15.228,61,1731183831,73901271,RU_myo,0.4641512253191901,0.3685619540343595,0.4859426492327818,0.6423281620244394,4.125,4.0,3.0,0.02099609375,0.9677734375,0.28564453125
1969/12/31/18:00:15.249,62,1731183831,94889216,RU_myo,0.4625515249983117,0.369955765771281,0.4876384446043168,0.6413950151335788,15.8125,2.125,2.5,0.03857421875,0.94189453125,0.24462890625
1969/12/31/18:00:15.267,63,1731183831,111454820,RU_myo,0.4608438904416008,0.371543941869937,0.4891659520528462,0.640542488250882,14.9375,1.75,3.125,0.05615234375,0.91845703125,0.2158203125
1969/12/31/18:00:15.290,64,1731183831,133920774,RU_myo,0.4587090336982381,0.3733763352138552,0.4905714575958402,0.6399341995066306,14.0,2.125,6.125,0.05810546875,0.951171875,0.20849609375
1969/12/31/18:00:15.311,65,1731183831,155037905,RU_myo,0.4563207160617861,0.3746517596558645,0.4916007286198001,0.640106387017115,10.875,4.75,12.5625,0.00390625,0.96533203125,0.220703125
1969/12/31/18:00:15.329,66,1731183831,171360501,RU_myo,0.4541960203535672,0.3764315088725237,0.4923458003187573,0.6400007086960291,7.5625,0.375,14.3125,-0.015625,0.994140625,0.16796875
1969/12/31/18:00:15.352,67,1731183831,193919536,RU_myo,0.4531455471592954,0.3784351282849719,0.4925150080857158,0.6394332909537687,5.5,-5.3125,8.0,0.0302734375,1.02685546875,0.1806640625
1969/12/31/18:00:15.373,68,1731183831,215053664,RU_myo,0.4520557925176254,0.380578971961571,0.4924026570672001,0.6390186459447773,13.9375,-4.9375,5.0,0.1015625,0.93408203125,0.2939453125
1969/12/31/18:00:15.390,69,1731183831,230766901,RU_myo,0.4502169789481201,0.3829529997180728,0.4939202540195482,0.6377260027182698,20.125,-1.375,1.1875,0.12451171875,0.95703125,0.224609375
1969/12/31/18:00:15.414,70,1731183831,253882211,RU_myo,0.4492406824337656,0.3839909148357092,0.4972166574871542,0.6352238834358966,17.25,2.0625,-5.8125,0.02197265625,1.00048828125,0.119140625
1969/12/31/18:00:15.436,71,1731183831,274874599,RU_myo,0.4497844320702225,0.3842302890327114,0.5005064924651682,0.6321030775572295,14.0625,-2.0625,-10.75,-0.0498046875,0.9921875,0.115234375
1969/12/31/18:00:15.452,72,1731183831,290735805,RU_myo,0.4512521795501864,0.3845379049325273,0.5024018246824813,0.629360371072903,5.8125,-7.0,-11.625,-0.03271484375,0.94189453125,0.0986328125
1969/12/31/18:00:15.476,73,1731183831,313932260,RU_myo,0.4550530279058185,0.3840635347529724,0.5029694097845666,0.626453283084831,-8.875,-14.5625,-20.3125,-0.0224609375,1.064453125,0.0751953125
1969/12/31/18:00:15.498,74,1731183831,334891036,RU_myo,0.4608318470919689,0.3825209517517045,0.503313829287467,0.6228859602084162,-13.3125,-18.3125,-32.9375,-0.02001953125,1.13671875,0.1181640625
1969/12/31/18:00:15.514,75,1731183831,350623187,RU_myo,0.4681726781012572,0.3797875362641489,0.5030262112428241,0.6193063874857049,-14.8125,-20.75,-40.8125,-0.03466796875,1.1494140625,0.2275390625
1969/12/31/18:00:15.538,76,1731183831,374041224,RU_myo,0.4771337125692714,0.3758107033758481,0.501732009379482,0.6159340275727924,-21.8125,-22.25,-50.4375,-0.00439453125,1.15576171875,0.302734375
1969/12/31/18:00:15.560,77,1731183831,394913327,RU_myo,0.4874026684387657,0.3700231654446835,0.5000989433336015,0.6127173432421202,-32.6875,-19.5,-62.625,0.02490234375,1.16845703125,0.29638671875
1969/12/31/18:00:15.576,78,1731183831,410717164,RU_myo,0.4986309444983511,0.361048113197178,0.498203668624745,0.6105772233831567,-43.25,-9.1875,-70.625,-0.0166015625,1.1396484375,0.37353515625
1969/12/31/18:00:15.600,79,1731183831,433962752,RU_myo,0.5083973638322975,0.3521974774057337,0.4976544251800601,0.608135782910455,-27.5,-2.125,-68.1875,-0.03466796875,0.9384765625,0.44091796875
1969/12/31/18:00:15.624,80,1731183831,456393315,RU_myo,0.5163740905140055,0.3447987278148484,0.4994057693363585,0.6042065156026172,-11.1875,1.625,-65.875,-0.06640625,0.9482421875,0.39697265625
1969/12/31/18:00:15.638,81,1731183831,470760077,RU_myo,0.5242184870209576,0.335602380256314,0.5019385909144545,0.6005195010843248,-15.125,10.75,-70.125,-0.12744140625,1.04443359375,0.41943359375
1969/12/31/18:00:15.662,82,1731183831,493910168,RU_myo,0.5315849812480068,0.3252745854943883,0.5043617751811093,0.5976897618992402,-17.375,18.25,-69.375,-0.125,0.92138671875,0.44189453125
1969/12/31/18:00:15.686,83,1731183831,516393202,RU_myo,0.5373777920715251,0.3155049758311805,0.507530252280183,0.5950586205026464,-12.5625,23.8125,-65.25,-0.10986328125,0.86376953125,0.40625
1969/12/31/18:00:15.700,84,1731183831,530779535,RU_myo,0.5420993727115428,0.305568005831999,0.5109077524598146,0.5930680672520381,-14.875,29.0625,-60.0625,-0.138671875,0.88671875,0.3779296875
1969/12/31/18:00:15.726,85,1731183831,555395705,RU_myo,0.5465881554126135,0.2937720594082533,0.5144825864849715,0.5918167230464211,-22.375,37.25,-59.75,-0.19677734375,0.8369140625,0.36376953125
1969/12/31/18:00:15.748,86,1731183831,576545037,RU_myo,0.5491893333978461,0.2834761880959873,0.5190348896167485,0.5904533090982956,-9.25,40.375,-49.1875,-0.1982421875,0.654296875,0.33447265625
1969/12/31/18:00:15.770,87,1731183831,597561800,RU_myo,0.5490333744499899,0.2763172969577659,0.5253507786426974,0.5884026380987107,9.5,40.5,-31.875,-0.26611328125,0.6611328125,0.27734375
1969/12/31/18:00:15.786,88,1731183831,613950509,RU_myo,0.5475840733062224,0.2724186511164497,0.5324463127243538,0.585184317332154,28.0,34.25,-23.0,-0.28857421875,0.69677734375,0.283203125
1969/12/31/18:00:15.810,89,1731183831,636401738,RU_myo,0.5448839613513922,0.2704582539204681,0.540123017138845,0.5815676468865313,34.375,32.4375,-17.75,-0.26513671875,0.76416015625,0.2177734375
1969/12/31/18:00:15.832,90,1731183831,657496265,RU_myo,0.5423830767959968,0.2680175658576662,0.5459232769371366,0.5796162162114322,21.3125,30.875,-14.9375,-0.2236328125,0.77001953125,0.2109375
1969/12/31/18:00:15.848,91,1731183831,673837397,RU_myo,0.5389034096383439,0.2660641026858694,0.550500606130731,0.5794325594854229,14.4375,31.25,-1.625,-0.25537109375,0.80322265625,0.21484375
1969/12/31/18:00:15.872,92,1731183831,696343499,RU_myo,0.5350629083856897,0.2648457631172151,0.5540458612157091,0.580170310769562,8.875,27.125,5.875,-0.2666015625,0.8515625,0.1796875
1969/12/31/18:00:15.894,93,1731183831,717552029,RU_myo,0.5317698612625686,0.2628329915744514,0.5562464124983687,0.5820047781380386,-3.6875,25.6875,4.9375,-0.22314453125,0.8193359375,0.15478515625
1969/12/31/18:00:15.910,94,1731183831,733880028,RU_myo,0.528716917579129,0.2613675641969326,0.558564824840292,0.5832244455632161,3.25,23.9375,4.1875,-0.20849609375,0.75048828125,0.18359375
1969/12/31/18:00:15.934,95,1731183831,756602098,RU_myo,0.5243808337848328,0.263380665554831,0.5627129445538789,0.5822452302960679,29.5,17.5,13.625,-0.24658203125,0.71728515625,0.17333984375
1969/12/31/18:00:15.956,96,1731183831,777386858,RU_myo,0.5186385487416815,0.2685054696851426,0.566614293040959,0.581263375269746,39.6875,11.0625,29.25,-0.2744140625,0.79638671875,0.17529296875
1969/12/31/18:00:15.972,97,1731183831,793896090,RU_myo,0.5129069239444434,0.2741241217939421,0.568879273017043,0.5815142525786876,30.75,7.125,32.5,-0.224609375,0.9248046875,0.17529296875
1969/12/31/18:00:15.996,98,1731183831,816588489,RU_myo,0.5086945865406869,0.2772977569779626,0.5690616307078022,0.5835277474596793,7.8125,6.4375,28.25,-0.232421875,0.953125,0.166015625
1969/12/31/18:00:16.018,99,1731183831,837416782,RU_myo,0.5061916576579665,0.2791287170468926,0.5664365830297755,0.5873727627689149,-16.9375,-0.6875,29.25,-0.22509765625,0.89111328125,0.1201171875
1969/12/31/18:00:16.035,100,1731183831,854404743,RU_myo,0.504494143241855,0.2812715078110669,0.5613222191472593,0.592696688551532,-27.5,-8.3125,35.5,-0.19677734375,0.841796875,0.158203125
1969/12/31/18:00:16.058,101,1731183831,876363670,RU_myo,0.5021093050918908,0.2841379546806165,0.5555797343722818,0.5987345214741499,-24.5,-7.5625,39.625,-0.13916015625,0.8759765625,0.23681640625
1969/12/31/18:00:16.080,102,1731183831,897395112,RU_myo,0.4986891346421349,0.2877381371729527,0.5512437668241273,0.6038594380678874,-12.4375,-3.5625,39.5,-0.1123046875,0.91748046875,0.26123046875
1969/12/31/18:00:16.105,103,1731183831,921412894,RU_myo,0.4946342969705205,0.292056405602658,0.5488341064115154,0.6073064233534896,0.5,-2.75,39.125,-0.14794921875,0.9345703125,0.23388671875
1969/12/31/18:00:16.120,104,1731183831,936369047,RU_myo,0.4901470992136453,0.2972623129726591,0.5469748637675561,0.6100896957210941,9.25,-4.125,42.4375,-0.1572265625,0.9189453125,0.25048828125
1969/12/31/18:00:16.142,105,1731183831,957361890,RU_myo,0.4852508189988934,0.3036022105283643,0.5455562038002654,0.6121484860050191,15.625,-6.3125,41.375,-0.1005859375,0.94775390625,0.2294921875
1969/12/31/18:00:16.159,106,1731183831,973823685,RU_myo,0.4806776891761753,0.3092817588642134,0.5442797402392324,0.6140466734110888,11.75,-4.8125,35.625,-0.080078125,1.087890625,0.220703125
1969/12/31/18:00:16.182,107,1731183831,996282613,RU_myo,0.4776375168293741,0.3125244838551304,0.5424619312540125,0.6163812964783412,1.9375,-1.8125,27.0,-0.09814453125,1.076171875,0.2568359375
1969/12/31/18:00:16.204,108,1731183832,17548191,RU_myo,0.4750557716269822,0.3158086293714514,0.5404880968465794,0.6184331335120884,0.5625,-4.875,26.875,-0.0927734375,0.9150390625,0.21337890625
1969/12/31/18:00:16.221,109,1731183832,33899577,RU_myo,0.472188878049593,0.3201435710147511,0.5384149551803852,0.6202056863833911,1.5,-8.5625,28.9375,-0.06884765625,0.986328125,0.17578125
1969/12/31/18:00:16.244,110,1731183832,56337408,RU_myo,0.4695717972795362,0.3241772800405065,0.5370807544862393,0.6212533150540906,3.625,-7.5625,22.5,-0.048828125,1.11181640625,0.185546875
1969/12/31/18:00:16.267,111,1731183832,78916054,RU_myo,0.4684701423347173,0.326311580576078,0.5355514044097472,0.6222870490035757,-0.4375,-5.5,11.6875,-0.04541015625,1.10693359375,0.24755859375
1969/12/31/18:00:16.283,112,1731183832,93944768,RU_myo,0.4682200016211485,0.3280775008100213,0.5333472003865983,0.6234388080508944,-3.8125,-8.4375,10.3125,-0.04541015625,0.97216796875,0.2529296875
1969/12/31/18:00:16.306,113,1731183832,116386299,RU_myo,0.4681675202167255,0.3301588157564887,0.5307322800892345,0.6246099392930576,-8.0625,-11.5625,12.0,-0.0498046875,0.9755859375,0.20703125
1969/12/31/18:00:16.328,114,1731183832,137530962,RU_myo,0.4680360873614614,0.3318002309463881,0.5288295071595855,0.6254519805937526,-6.375,-8.625,8.8125,-0.0458984375,1.046875,0.2099609375
1969/12/31/18:00:16.345,115,1731183832,153914442,RU_myo,0.4683561463634406,0.3329705171917853,0.5279307063596244,0.625349761435351,0.3125,-6.6875,0.3125,-0.037109375,1.05810546875,0.25439453125
1969/12/31/18:00:16.369,116,1731183832,176349926,RU_myo,0.4687868803604388,0.3338885723400521,0.5273242004471134,0.6250491738139184,0.375,-6.5625,-1.3125,-0.0390625,0.994140625,0.22314453125
1969/12/31/18:00:16.390,117,1731183832,197468844,RU_myo,0.4695091333713322,0.3346137635389552,0.5260919423462705,0.625157637024075,-5.625,-7.4375,0.75,-0.052734375,0.943359375,0.1982421875
1969/12/31/18:00:16.407,118,1731183832,213961458,RU_myo,0.4699851398244136,0.3353984861474224,0.5250405419181307,0.6252633470599082,-0.9375,-6.4375,1.0,-0.0400390625,0.9296875,0.2412109375
1969/12/31/18:00:16.431,119,1731183832,236432353,RU_myo,0.4693942473527601,0.3371215121104413,0.5253064879997208,0.6245568191044787,13.6875,-4.0,2.0625,-0.029296875,0.91650390625,0.283203125
1969/12/31/18:00:16.452,120,1731183832,257372530,RU_myo,0.4684205690537975,0.3384665175141135,0.5261033209114778,0.6238893192987834,9.75,-0.875,3.1875,-0.05810546875,1.01171875,0.2138671875
1969/12/31/18:00:16.469,121,1731183832,273825505,RU_myo,0.4688501030474485,0.338223983984626,0.5258006493491371,0.623953359373912,-7.0,-1.8125,0.5625,-0.10693359375,1.05517578125,0.17529296875
1969/12/31/18:00:16.493,122,1731183832,296425588,RU_myo,0.4701749807895818,0.3374175378170593,0.5244376781700749,0.6245398420665976,-10.4375,-4.0,-2.125,-0.08349609375,0.93994140625,0.2275390625
1969/12/31/18:00:16.514,123,1731183832,317494772,RU_myo,0.4707788378354667,0.3370466410641057,0.5232707087726508,0.6252636347447843,-1.75,-1.5,-0.125,-0.04931640625,0.84912109375,0.2998046875
1969/12/31/18:00:16.531,124,1731183832,333885140,RU_myo,0.4702483062911549,0.3371211572749284,0.5235968290972906,0.6253496752275288,4.75,2.375,2.5,-0.07373046875,0.88330078125,0.240234375
1969/12/31/18:00:16.555,125,1731183832,356433782,RU_myo,0.4694447768687751,0.337480193902933,0.5246843455940698,0.6248480276694385,3.625,2.75,1.5,-0.08935546875,0.99853515625,0.16748046875
1969/12/31/18:00:16.577,126,1731183832,378848123,RU_myo,0.4693978492175338,0.3376124192486579,0.5251273988060394,0.6244395315338583,1.25,-0.0625,-1.875,-0.06884765625,1.0341796875,0.2021484375
1969/12/31/18:00:16.593,127,1731183832,393867864,RU_myo,0.4690914920257565,0.337428466872919,0.5245767446284127,0.625231509800888,3.625,2.5,2.0625,-0.04296875,0.8974609375,0.3232421875
1969/12/31/18:00:16.617,128,1731183832,416293224,RU_myo,0.4685417525213458,0.3371229936393164,0.5240269600567683,0.6262686791126899,-4.5625,3.75,3.5,-0.04296875,0.91552734375,0.21337890625
1969/12/31/18:00:16.640,129,1731183832,438980266,RU_myo,0.4687866323374673,0.3357195934708425,0.5235394460362576,0.6272462804557051,-13.4375,4.0,-0.125,-0.09716796875,1.05126953125,0.177734375
1969/12/31/18:00:16.655,130,1731183832,453878962,RU_myo,0.4695060512111079,0.3340622228651058,0.5230976155589178,0.6279612915834475,-8.25,3.3125,-1.6875,-0.12255859375,0.98291015625,0.25390625
1969/12/31/18:00:16.679,131,1731183832,476366928,RU_myo,0.4696382026331085,0.3332758755363624,0.5224374026951879,0.628829316808719,-1.125,2.625,0.5,-0.05859375,0.84619140625,0.29345703125
1969/12/31/18:00:16.702,132,1731183832,498873211,RU_myo,0.4690826791308171,0.3330883773606856,0.5229188434760846,0.6289431263193155,2.0,4.625,-2.125,-0.02392578125,0.96728515625,0.2333984375
1969/12/31/18:00:16.717,133,1731183832,513585678,RU_myo,0.468658165946387,0.3318085165517791,0.5232271162402227,0.6296792966792041,-5.125,8.0625,-1.375,-0.0771484375,1.01904296875,0.22265625
1969/12/31/18:00:16.741,134,1731183832,536445148,RU_myo,0.4684053797771708,0.3305206061367448,0.5234005905120198,0.6304001514645061,-5.1875,7.5625,-2.5,-0.05322265625,0.9951171875,0.232421875
1969/12/31/18:00:16.764,135,1731183832,558902841,RU_myo,0.4681644520801769,0.329607306549277,0.5238925022430454,0.6306486465309501,0.875,6.25,-3.625,-0.05322265625,0.94189453125,0.2548828125
1969/12/31/18:00:16.787,136,1731183832,581288419,RU_myo,0.4674965193877903,0.3291214561351306,0.5245678401382257,0.6308364705409079,1.1875,6.375,-1.75,-0.0498046875,0.98046875,0.2255859375
1969/12/31/18:00:16.803,137,1731183832,596430023,RU_myo,0.4668900318007011,0.3287579698363938,0.5255488526348591,0.6306586231618309,2.6875,5.625,-2.5625,-0.0595703125,1.001953125,0.21533203125
1969/12/31/18:00:16.826,138,1731183832,618856684,RU_myo,0.4664553467446797,0.3285085941088544,0.5263950419165294,0.6304044518684967,5.8125,4.125,-3.25,-0.0498046875,0.9375,0.24853515625
1969/12/31/18:00:16.850,139,1731183832,641355065,RU_myo,0.465900910196475,0.3286881175695032,0.5273658933705678,0.629909261525956,10.5,3.8125,-3.1875,-0.037109375,0.93505859375,0.27685546875
1969/12/31/18:00:16.865,140,1731183832,656297088,RU_myo,0.4655371866373925,0.3288119607205498,0.5284063753402264,0.6292412294538979,8.625,2.5,-3.5625,-0.0546875,0.970703125,0.25341796875
1969/12/31/18:00:16.888,141,1731183832,678845633,RU_myo,0.46590943562506,0.3281447826438258,0.52804697073135,0.6296155939306294,-7.625,1.1875,-3.25,-0.05908203125,0.98046875,0.19189453125
1969/12/31/18:00:16.902,142,1731183832,693144477,RU_myo,0.4667620107479054,0.3271057428531483,0.5267018949579804,0.6306505943569188,-17.25,-0.3125,-3.25,-0.04248046875,0.93701171875,0.14892578125
1969/12/31/18:00:16.927,143,1731183832,716294738,RU_myo,0.4681652186725984,0.3258844983693615,0.5247478989476309,0.6318704489828865,-21.75,-2.8125,-3.5625,-0.04541015625,0.8828125,0.14111328125
1969/12/31/18:00:16.950,144,1731183832,738929143,RU_myo,0.4697525458180272,0.3252133009509419,0.5224898378641258,0.632908543085645,-23.4375,-6.6875,-2.625,-0.05419921875,0.90771484375,0.12109375
1969/12/31/18:00:16.972,145,1731183832,760071843,RU_myo,0.4718904855586362,0.3250312812831119,0.5199279725764407,0.6335210644952898,-21.0625,-11.875,-2.0,-0.06982421875,0.90380859375,0.15234375
1969/12/31/18:00:16.989,146,1731183832,776620566,RU_myo,0.4760313688103608,0.3252687734825507,0.5147291361940983,0.634545725112516,-36.125,-26.5,-0.25,-0.09423828125,0.87451171875,0.13037109375
1969/12/31/18:00:17.012,147,1731183832,798904839,RU_myo,0.4836560464623791,0.3264861424188877,0.5049579091851669,0.6360040388866721,-62.0,-52.375,1.0,-0.11865234375,0.93017578125,0.10205078125
1969/12/31/18:00:17.034,148,1731183832,819967659,RU_myo,0.4931418347784783,0.3280287436687142,0.4910054361874092,0.6388442186893866,-96.1875,-68.875,6.25,-0.1064453125,1.001953125,-0.03369140625
1969/12/31/18:00:17.057,149,1731183832,842502784,RU_myo,0.5073565349155192,0.3257043395463439,0.4676201171785121,0.6464034774729727,-148.4375,-84.25,6.875,-0.0830078125,0.94482421875,-0.16064453125
1969/12/31/18:00:17.074,150,1731183832,858796332,RU_myo,0.5257801310778653,0.320265654488688,0.4348337188064444,0.6571946449170392,-209.4375,-104.9375,9.8125,-0.03662109375,0.8095703125,-0.1826171875
1969/12/31/18:00:17.096,151,1731183832,880080719,RU_myo,0.5473455576349592,0.3119143302681656,0.3918156724053532,0.6705242500970253,-266.4375,-126.75,15.5625,0.08544921875,0.6494140625,-0.04248046875
1969/12/31/18:00:17.113,152,1731183832,896460404,RU_myo,0.5705852242249876,0.3022001973831743,0.3440113739550738,0.6817358118708694,-284.5625,-143.4375,7.25,0.16943359375,0.55029296875,0.171875
1969/12/31/18:00:17.136,153,1731183832,918871970,RU_myo,0.5929811266335109,0.2946289138713285,0.2962769314131818,0.6883219933140609,-264.0,-157.625,-0.875,0.20849609375,0.36767578125,0.2626953125
1969/12/31/18:00:17.158,154,1731183832,939757870,RU_myo,0.6122672256216185,0.2929189926984495,0.2522069760012489,0.6897238211069973,-212.9375,-170.6875,-3.1875,0.30810546875,0.2548828125,0.3876953125
1969/12/31/18:00:17.175,155,1731183832,956499500,RU_myo,0.6277332667189321,0.2993391618037381,0.214982163106192,0.6856600335524858,-140.9375,-181.125,-8.375,0.44189453125,0.23095703125,0.57177734375
1969/12/31/18:00:17.198,156,1731183832,978821347,RU_myo,0.6376258759889305,0.3143570037663213,0.1872102777769529,0.6779124046269445,-58.75,-180.25,-5.25,0.52392578125,0.32958984375,0.69873046875
1969/12/31/18:00:17.220,157,1731183832,999991387,RU_myo,0.641023333897562,0.3371750996429378,0.166451212296577,0.6691009127961413,8.625,-179.5,11.5625,0.5439453125,0.3330078125,0.5791015625
1969/12/31/18:00:17.236,158,1731183833,16335404,RU_myo,0.638334435904023,0.3673261269143631,0.1466740915545388,0.6603691204862904,51.0,-199.0625,40.6875,0.55029296875,0.30859375,0.5302734375
1969/12/31/18:00:17.260,159,1731183833,38721184,RU_myo,0.6295593553303955,0.4041412150128514,0.1254968038161036,0.6515945431599741,80.875,-224.25,72.8125,0.626953125,0.5234375,0.51318359375
1969/12/31/18:00:17.282,160,1731183833,59993087,RU_myo,0.6172312699773146,0.4443064096286465,0.1037671241061545,0.6409756295521936,97.5625,-239.4375,83.125,0.88525390625,0.84765625,0.533203125
1969/12/31/18:00:17.298,161,1731183833,75557877,RU_myo,0.6098940055796153,0.4787228468535751,0.0700108511208785,0.6276561308421921,27.0,-274.125,82.3125,0.94580078125,0.78466796875,0.8271484375
1969/12/31/18:00:17.322,162,1731183833,98767378,RU_myo,0.5941971175250353,0.5173512858903132,0.0344860165795218,0.6148887274727484,57.5625,-293.75,124.5625,0.69580078125,0.71630859375,0.6845703125
1969/12/31/18:00:17.344,163,1731183833,120066916,RU_myo,0.5740057754304074,0.5546565803207265,0.0011597309371733,0.6023886641559646,75.0,-280.875,134.125,0.685546875,0.59375,0.60791015625
1969/12/31/18:00:17.360,164,1731183833,135635856,RU_myo,0.5503251422379679,0.5902444682166316,-0.024110296271517,0.5900613520424175,108.8125,-247.375,118.0625,0.91162109375,0.47802734375,0.56103515625
1969/12/31/18:00:17.384,165,1731183833,158906412,RU_myo,0.5252301847007808,0.6218530065928594,-0.0496847612256171,0.578760326709216,98.375,-230.3125,128.3125,0.86328125,0.41015625,0.3203125
1969/12/31/18:00:17.415,166,1731183833,188897558,RU_myo,0.5035049239616264,0.6470670019295917,-0.0763589113681652,0.567412022444815,64.0,-213.6875,125.625,1.00732421875,0.70068359375,0.3896484375
1969/12/31/18:00:17.423,167,1731183833,195657048,RU_myo,0.485685600504507,0.6659331282523779,-0.1069399487349373,0.5560633179082642,18.125,-203.125,131.125,1.0927734375,0.732421875,0.36279296875
1969/12/31/18:00:17.438,168,1731183833,210843150,RU_myo,0.4729239373869386,0.6788668084173376,-0.1420358805239295,0.5434230529886312,-32.5625,-199.3125,133.375,1.04345703125,0.6953125,0.32275390625
1969/12/31/18:00:17.451,169,1731183833,224216434,RU_myo,0.4692028799958559,0.6824713674038851,-0.1809180872001713,0.530424486426953,-104.75,-175.8125,126.4375,1.1884765625,0.68408203125,0.3544921875
1969/12/31/18:00:17.484,170,1731183833,254886724,RU_myo,0.46900873079272,0.680135904115471,-0.221869695006707,0.5178994118657247,-140.6875,-157.0,127.625,1.16748046875,0.39208984375,0.279296875
1969/12/31/18:00:17.492,171,1731183833,263030386,RU_myo,0.4745501801658252,0.6724879594941559,-0.2610483756359144,0.5043964873170906,-171.875,-137.875,109.125,1.140625,0.39013671875,0.5439453125
1969/12/31/18:00:17.515,172,1731183833,284373675,RU_myo,0.4812756494230569,0.6677432599477797,-0.2893147214033341,0.4886611096107792,-141.5,-120.0625,55.4375,1.087890625,0.52587890625,0.3154296875
1969/12/31/18:00:17.537,173,1731183833,306729406,RU_myo,0.4867267098564258,0.6667923976011532,-0.3029986691406192,0.4761058862402961,-75.9375,-89.875,14.125,1.181640625,0.6025390625,0.1494140625
1969/12/31/18:00:17.555,174,1731183833,323259336,RU_myo,0.4922786823321666,0.6631875863036565,-0.3088568050341925,0.4716475360670367,-41.9375,-47.875,-2.6875,1.33251953125,0.45947265625,0.41259765625
1969/12/31/18:00:17.576,175,1731183833,344205481,RU_myo,0.4966539437342788,0.6585227232332719,-0.308966727686238,0.4735211128782763,-12.3125,-12.3125,-6.75,1.2509765625,0.35107421875,0.52001953125
1969/12/31/18:00:17.599,176,1731183833,366760372,RU_myo,0.4914008199363189,0.661447110377579,-0.3003581461814216,0.4804143402954622,67.0,25.1875,-1.5625,1.07666015625,0.455078125,0.0556640625
1969/12/31/18:00:17.616,177,1731183833,383185139,RU_myo,0.4815325762314584,0.6687375973116818,-0.2857211293369827,0.4891623863504763,112.9375,39.375,-11.6875,0.99169921875,0.66748046875,-0.1943359375
1969/12/31/18:00:17.646,178,1731183833,411527732,RU_myo,0.4780944211243571,0.6752404673686663,-0.2708164108934983,0.4920716485515852,77.375,31.0625,-36.3125,1.046875,0.64013671875,-0.1103515625
1969/12/31/18:00:17.661,179,1731183833,426698584,RU_myo,0.474571956284084,0.6791719816814152,-0.2552006880030553,0.4983768518404561,81.8125,40.3125,-47.8125,1.21533203125,0.39208984375,0.08935546875
1969/12/31/18:00:17.678,180,1731183833,443128075,RU_myo,0.4676005338594332,0.6810451320719952,-0.2412772366983865,0.5092274186123549,92.6875,49.75,-32.25,1.10693359375,0.09326171875,0.18115234375
1969/12/31/18:00:17.703,181,1731183833,467129876,RU_myo,0.4585003818221062,0.6826846073855508,-0.2301657268172474,0.5203295733537614,89.25,50.3125,-8.1875,0.8515625,0.06591796875,0.05224609375
1969/12/31/18:00:17.727,182,1731183833,489738250,RU_myo,0.4483889007532442,0.6869884396920451,-0.2185789073778066,0.5284103884863647,92.8125,42.4375,-5.5625,0.708984375,0.201171875,-0.1318359375
1969/12/31/18:00:17.739,183,1731183833,501650253,RU_myo,0.4394782941538254,0.6923614292481726,-0.2078976485955457,0.5331726249213424,81.6875,32.5625,-9.5,0.69287109375,0.291015625,-0.24658203125
1969/12/31/18:00:17.762,184,1731183833,524206219,RU_myo,0.433020559225675,0.6954332155706393,-0.2008228982030548,0.5371554723972287,55.0625,26.8125,-3.625,0.8232421875,0.3154296875,-0.203125
1969/12/31/18:00:17.786,185,1731183833,546761721,RU_myo,0.4286097061681124,0.6959566889388804,-0.1968479496428599,0.5414691972966854,33.6875,26.125,4.5625,0.96142578125,0.349609375,-0.134765625
1969/12/31/18:00:17.801,186,1731183833,561606707,RU_myo,0.4255686577581726,0.6965848425611396,-0.193068511831483,0.5444129171751494,24.4375,25.5,1.3125,0.9658203125,0.40478515625,-0.203125
1969/12/31/18:00:17.824,187,1731183833,584092196,RU_myo,0.4232371560241907,0.6990066211117728,-0.1904994467769684,0.5440312621349311,16.125,11.1875,-3.875,0.97509765625,0.4482421875,-0.30615234375
1969/12/31/18:00:17.848,188,1731183833,606654365,RU_myo,0.4207946573509544,0.7009582020624254,-0.1913535321722138,0.5431144271988385,5.75,-3.0625,3.5625,1.03173828125,0.38232421875,-0.2421875
1969/12/31/18:00:17.863,189,1731183833,621637676,RU_myo,0.4183431382026502,0.7006362537829328,-0.1951332087589542,0.5440780177908409,-3.1875,-4.6875,17.5625,0.99755859375,0.27880859375,-0.09521484375
1969/12/31/18:00:17.863,1,1731183839,616369452,RU_myo,0.4779116685323381,0.689096135086858,-0.2518344245676152,0.4830386902637195,-1.0625,-0.0625,-1.0,0.92236328125,0.38916015625,-0.06298828125
1969/12/31/18:00:17.885,2,1731183839,637457819,RU_myo,0.4779929560608399,0.689064293317689,-0.251845094714216,0.482998117904409,-0.75,-0.125,-1.25,0.9130859375,0.404296875,-0.076171875
1969/12/31/18:00:17.901,3,1731183839,653837574,RU_myo,0.4782309241091895,0.6890553799959975,-0.2517807992278758,0.4828087568224236,-0.9375,-0.125,-2.125,0.9130859375,0.41064453125,-0.078125
1969/12/31/18:00:17.925,4,1731183839,676272988,RU_myo,0.4786537231915646,0.688804803139098,-0.2520225992167776,0.4826211411981256,-3.8125,0.8125,-1.25,0.912109375,0.40380859375,-0.08984375
1969/12/31/18:00:17.947,5,1731183839,697330919,RU_myo,0.4795774187178517,0.6885112998774808,-0.2524541432884096,0.4818968716784318,-7.375,-0.25,-2.875,0.91357421875,0.41455078125,-0.103515625
1969/12/31/18:00:17.964,6,1731183839,713729399,RU_myo,0.4806767516655802,0.6885122233381265,-0.2524544818906463,0.4807988283009239,-6.75,-0.8125,-6.625,0.9384765625,0.42431640625,-0.10791015625
1969/12/31/18:00:17.987,7,1731183839,736244083,RU_myo,0.4818368100123603,0.6888789254876486,-0.252027386437932,0.4793342372722404,-5.25,-3.375,-10.875,0.95703125,0.4296875,-0.091796875
1969/12/31/18:00:18.009,8,1731183839,757275816,RU_myo,0.4833015226682962,0.690526664049815,-0.2503792429888041,0.4763431526778711,-2.5,-6.375,-18.375,0.95947265625,0.49658203125,-0.1357421875
1969/12/31/18:00:18.026,9,1731183839,773257162,RU_myo,0.4853801570281744,0.6944378831123668,-0.2463524036425694,0.4706087790099629,2.6875,-11.1875,-31.875,0.92626953125,0.6357421875,-0.21826171875
1969/12/31/18:00:18.056,10,1731183839,802355671,RU_myo,0.4884267409724352,0.6979704802574104,-0.2404900474170701,0.4652322693941392,4.5,-6.3125,-42.375,0.97509765625,0.65625,-0.166015625
1969/12/31/18:00:18.078,11,1731183839,825002393,RU_myo,0.492077123363567,0.6992964031724618,-0.2343195331918548,0.4625354057118718,4.125,3.875,-41.75,1.044921875,0.59228515625,-0.037109375
1969/12/31/18:00:18.087,12,1731183839,833237024,RU_myo,0.495448436173674,0.6990724331030046,-0.2261471548630605,0.4633422544036417,13.5625,21.9375,-41.75,1.08984375,0.56298828125,0.05419921875
1969/12/31/18:00:18.111,13,1731183839,856482862,RU_myo,0.5005128492383638,0.6977881576210946,-0.2155867540865733,0.4648665682682169,13.3125,33.3125,-48.9375,1.06640625,0.62744140625,0.12451171875
1969/12/31/18:00:18.140,14,1731183839,884884379,RU_myo,0.5083837820682156,0.6935724475496619,-0.2053921751302131,0.4672443092486721,-4.625,45.0625,-49.5625,0.970703125,0.58642578125,0.1865234375
1969/12/31/18:00:18.149,15,1731183839,893127357,RU_myo,0.5182701755208258,0.6869780739002348,-0.1969683024856559,0.4697452915802938,-24.375,48.875,-44.9375,0.888671875,0.55224609375,0.22021484375
1969/12/31/18:00:18.173,16,1731183839,916628790,RU_myo,0.5310781894535769,0.6779318986623236,-0.1872598420001808,0.4725442297149284,-37.9375,62.9375,-50.5625,0.86572265625,0.6240234375,0.2783203125
1969/12/31/18:00:18.196,17,1731183839,939023699,RU_myo,0.5463543967306916,0.6680038563088693,-0.1745086828570045,0.4741460120437953,-46.4375,77.6875,-65.6875,0.8486328125,0.74658203125,0.2294921875
1969/12/31/18:00:18.212,18,1731183839,953426648,RU_myo,0.5644395266710532,0.6553895531380014,-0.1594372276051466,0.4758700713666628,-65.375,104.6875,-87.125,0.9091796875,0.77783203125,0.201171875
1969/12/31/18:00:18.236,19,1731183839,976476631,RU_myo,0.5841279537491184,0.6402823651858153,-0.143315823971048,0.4778007964418076,-76.0625,117.0625,-94.1875,0.93994140625,0.736328125,0.27734375
1969/12/31/18:00:18.258,20,1731183839,998842378,RU_myo,0.603603614710589,0.622342244472562,-0.1267756808326315,0.4819551159626667,-81.25,134.5,-88.1875,0.95703125,0.611328125,0.3330078125
1969/12/31/18:00:18.274,21,1731183840,13286700,RU_myo,0.6225881913183674,0.6007365665642521,-0.1080984006691008,0.4897083391124766,-82.8125,164.1875,-80.5625,0.9560546875,0.525390625,0.46484375
1969/12/31/18:00:18.298,22,1731183840,36424738,RU_myo,0.6401817548923323,0.5757240953608389,-0.0866760194457582,0.5011949265275497,-79.375,195.875,-71.875,0.94384765625,0.474609375,0.533203125
1969/12/31/18:00:18.327,23,1731183840,64866981,RU_myo,0.6559030118011221,0.5484779884649994,-0.0634173859353588,0.514724557837229,-76.0625,216.0625,-63.1875,0.89404296875,0.50732421875,0.53271484375
1969/12/31/18:00:18.342,24,1731183840,79987032,RU_myo,0.669694968731598,0.5202770610160536,-0.0394297256471575,0.5284559824351235,-72.3125,223.0625,-58.0625,0.87939453125,0.5966796875,0.5341796875
1969/12/31/18:00:18.360,25,1731183840,96513202,RU_myo,0.6840777548767462,0.4878334448982738,-0.0158704574166105,0.5420371609980821,-92.4375,235.4375,-59.0625,0.89306640625,0.60107421875,0.54052734375
1969/12/31/18:00:18.382,26,1731183840,119093316,RU_myo,0.6970584500213937,0.4531490309070776,0.0061648777103468,0.5556324930424471,-102.6875,236.9375,-49.8125,0.833984375,0.57080078125,0.56591796875
1969/12/31/18:00:18.404,27,1731183840,139922355,RU_myo,0.7063959490577536,0.4198212509823926,0.0254529604041374,0.5693039848666438,-94.875,221.0625,-30.3125,0.7265625,0.5224609375,0.68603515625
1969/12/31/18:00:18.422,28,1731183840,156506185,RU_myo,0.7095100244958887,0.3927208790095103,0.0431541282965066,0.583526826753329,-61.8125,197.6875,-2.5625,0.6943359375,0.61181640625,0.6796875
1969/12/31/18:00:18.444,29,1731183840,178863668,RU_myo,0.7093305444818488,0.3686126114900512,0.0611607611712255,0.5976907918050308,-42.0625,190.8125,8.0,0.68310546875,0.53857421875,0.57666015625
1969/12/31/18:00:18.466,30,1731183840,200011391,RU_myo,0.7060160060414258,0.3452868112886959,0.0814234764467244,0.6129344456356876,-23.6875,201.6875,17.5,0.6826171875,0.38623046875,0.50830078125
1969/12/31/18:00:18.484,31,1731183840,216412282,RU_myo,0.6981000001663521,0.3270455364948251,0.1058411646662983,0.6280885723276876,23.25,201.6875,27.125,0.60498046875,0.25048828125,0.62353515625
1969/12/31/18:00:18.507,32,1731183840,238898373,RU_myo,0.6836418944582987,0.3164895734612749,0.1362400632527609,0.643355854249149,85.375,202.25,45.8125,0.53369140625,0.376953125,0.509765625
1969/12/31/18:00:18.528,33,1731183840,259992131,RU_myo,0.6647634473641169,0.3114762530437139,0.1707839615944173,0.657194751424979,128.3125,198.25,54.375,0.4228515625,0.494140625,0.3525390625
1969/12/31/18:00:18.546,34,1731183840,276376455,RU_myo,0.6457206193203191,0.3073871858301472,0.2075290770100278,0.6674501344425455,144.125,195.625,38.9375,0.3134765625,0.560546875,0.35791015625
1969/12/31/18:00:18.571,35,1731183840,300796642,RU_myo,0.6281576408329105,0.305746926725493,0.2440359778495749,0.672594407184709,157.0625,172.375,19.1875,0.166015625,0.6025390625,0.46728515625
1969/12/31/18:00:18.590,36,1731183840,319917378,RU_myo,0.6102603691104272,0.307205484870252,0.2783343951933935,0.6750829848330991,162.4375,148.1875,18.8125,0.12158203125,0.59375,0.29345703125
1969/12/31/18:00:18.608,37,1731183840,336481609,RU_myo,0.5937929009595502,0.3064796623887645,0.3059303062920708,0.678149581585177,123.8125,132.125,23.8125,0.11328125,0.6474609375,0.19384765625
1969/12/31/18:00:18.631,38,1731183840,358836906,RU_myo,0.5770774772724719,0.3051417716189007,0.3293748749060988,0.6821893257877244,107.625,122.125,34.4375,0.09423828125,0.63720703125,0.39111328125
1969/12/31/18:00:18.652,39,1731183840,379955106,RU_myo,0.557716549455521,0.3105682175363566,0.3543334321538031,0.683335533671288,145.9375,100.5625,45.25,0.07177734375,0.642578125,0.34326171875
1969/12/31/18:00:18.670,40,1731183840,396478669,RU_myo,0.5408745291104746,0.3166139467888536,0.3753953677947657,0.6828533300032591,127.6875,77.125,38.8125,0.05419921875,0.8603515625,0.17724609375
1969/12/31/18:00:18.701,41,1731183840,426366074,RU_myo,0.5291447037681518,0.3184390263650303,0.3899764116247228,0.6830233285460398,66.5,63.6875,24.625,0.02099609375,0.95947265625,0.26513671875
1969/12/31/18:00:18.714,42,1731183840,440019996,RU_myo,0.5194445648309542,0.3182589848447233,0.3987698404278054,0.6854714997710477,43.8125,53.9375,28.25,0.02880859375,0.7978515625,0.3984375
1969/12/31/18:00:18.732,43,1731183840,456476705,RU_myo,0.5112522021788425,0.3191663998559178,0.4043140624680817,0.6879564912556989,17.9375,38.125,28.6875,0.0712890625,0.9482421875,0.25048828125
1969/12/31/18:00:18.755,44,1731183840,478847496,RU_myo,0.5076469776388834,0.3153185387137756,0.4026018353379915,0.6933833913644001,-39.5,29.0625,24.0,0.0419921875,1.05517578125,0.32373046875
1969/12/31/18:00:18.777,45,1731183840,499831757,RU_myo,0.5066748276722701,0.3088512984003959,0.3971730036939479,0.7001036349115695,-58.4375,26.75,13.6875,0.10498046875,0.93994140625,0.46435546875
1969/12/31/18:00:18.794,46,1731183840,516478686,RU_myo,0.5064971469930647,0.3036053035844184,0.3921110716176726,0.7053604519946801,-54.625,19.1875,8.125,0.109375,0.8564453125,0.38330078125
1969/12/31/18:00:18.817,47,1731183840,538956913,RU_myo,0.5060108404950604,0.2998221047661926,0.3860087521460509,0.7106736086711687,-53.6875,9.5625,17.3125,0.0693359375,0.76904296875,0.359375
1969/12/31/18:00:18.841,48,1731183840,561505839,RU_myo,0.5036417812178344,0.2992185203647829,0.3817447218199413,0.7149015321322599,-23.375,5.5625,23.0625,0.123046875,0.7734375,0.49609375
1969/12/31/18:00:18.856,49,1731183840,576587118,RU_myo,0.4996656451397064,0.3012887398496935,0.381127814347951,0.7171477723853421,12.0,5.5625,22.0625,0.1455078125,0.72021484375,0.56298828125
1969/12/31/18:00:18.887,50,1731183840,606385848,RU_myo,0.4938086204063714,0.3049527648393364,0.3829610981989585,0.7186777128139206,30.0625,9.1875,27.375,0.15087890625,0.73095703125,0.53564453125
1969/12/31/18:00:18.901,51,1731183840,619928315,RU_myo,0.4866657223167942,0.3095909373624458,0.3861951618083979,0.7198355529012861,34.8125,9.625,33.625,0.12548828125,0.8564453125,0.48291015625
1969/12/31/18:00:18.918,52,1731183840,636475334,RU_myo,0.4808640266009939,0.3127020066358075,0.3892447191716854,0.7207466902899894,27.0625,9.875,28.8125,0.06689453125,0.93603515625,0.505859375
1969/12/31/18:00:18.941,53,1731183840,658908349,RU_myo,0.4768425345587473,0.3139884789772397,0.390532326690587,0.7221612936974577,17.5625,8.4375,22.5,0.05419921875,0.8271484375,0.55419921875
1969/12/31/18:00:18.963,54,1731183840,679959115,RU_myo,0.4729841156398849,0.3162993531095475,0.3919255396210739,0.7229350710593364,16.0,3.9375,21.4375,0.07470703125,0.86376953125,0.4697265625
1969/12/31/18:00:18.979,55,1731183840,695879471,RU_myo,0.4695163509715336,0.3180161451588261,0.3916298632128653,0.7246007023378934,-0.625,2.875,24.0625,0.08251953125,0.92724609375,0.41748046875
1969/12/31/18:00:19.003,56,1731183840,718949661,RU_myo,0.4668679672967602,0.3183051966861818,0.3886192113712214,0.7277988811670243,-15.4375,2.3125,26.25,0.0947265625,0.884765625,0.48876953125
1969/12/31/18:00:19.025,57,1731183840,740005910,RU_myo,0.4643112300923186,0.3190423031014263,0.3850847312544286,0.7309834746398854,-14.8125,0.1875,25.4375,0.1328125,0.8076171875,0.47265625
1969/12/31/18:00:19.041,58,1731183840,755994570,RU_myo,0.4611517335857285,0.3214328297898671,0.3841812059812806,0.732410278133045,1.0625,-1.75,22.3125,0.1513671875,0.93505859375,0.4736328125
1969/12/31/18:00:19.065,59,1731183840,778864645,RU_myo,0.458956554579197,0.3224720678071416,0.3829012457607798,0.7340008736287864,-2.5,1.3125,16.25,0.16650390625,0.96337890625,0.5576171875
1969/12/31/18:00:19.087,60,1731183840,799944823,RU_myo,0.4571882423652454,0.3221681633115841,0.38021703093366,0.7366285325585823,-10.75,4.4375,15.1875,0.18212890625,0.84228515625,0.55908203125
1969/12/31/18:00:19.103,61,1731183840,815884570,RU_myo,0.4555795866334809,0.3220308010554991,0.3780626955530253,0.7387909052266417,-10.8125,3.75,13.375,0.17138671875,0.81884765625,0.49560546875
1969/12/31/18:00:19.127,62,1731183840,838877948,RU_myo,0.4538354487662949,0.3224154459157457,0.3778401382465858,0.7398097698786139,-0.1875,4.4375,10.25,0.16455078125,0.919921875,0.52392578125
1969/12/31/18:00:19.149,63,1731183840,859915563,RU_myo,0.4525987941911791,0.3222820813660723,0.3798411727918688,0.7396007537713443,9.875,8.0625,0.1875,0.15185546875,0.94970703125,0.546875
1969/12/31/18:00:19.165,64,1731183840,875927585,RU_myo,0.4521704902288616,0.3209385039988329,0.3832584379248139,0.7386834871422358,15.8125,13.5625,-9.8125,0.1298828125,0.88427734375,0.552734375
1969/12/31/18:00:19.189,65,1731183840,898862543,RU_myo,0.4510025609699118,0.3205054063679804,0.3897824271692864,0.7361675311758163,34.5625,15.9375,-13.375,0.09814453125,0.83251953125,0.47998046875
1969/12/31/18:00:19.211,66,1731183840,920069258,RU_myo,0.4493746089515214,0.3219846593614881,0.3988947391331421,0.7316223937643216,49.0,10.9375,-13.8125,0.04150390625,0.88671875,0.3798828125
1969/12/31/18:00:19.227,67,1731183840,935777657,RU_myo,0.4482617308251415,0.324049772460604,0.4072443175470239,0.7267772915216448,49.3125,4.3125,-13.375,0.017578125,0.85107421875,0.37451171875
1969/12/31/18:00:19.251,68,1731183840,958936982,RU_myo,0.4473517827459036,0.3271668106860476,0.4141467930046331,0.7220254111203839,42.5625,-2.875,-10.625,0.0380859375,0.8232421875,0.2958984375
1969/12/31/18:00:19.275,69,1731183840,982106695,RU_myo,0.4471083846814216,0.3312569561318874,0.4186643563863305,0.7176928856087584,29.125,-12.5,-6.875,0.06884765625,0.87353515625,0.24755859375
1969/12/31/18:00:19.297,70,1731183841,2432711,RU_myo,0.4471094732865174,0.3361408695411401,0.4225718612372096,0.7131167203285165,32.875,-17.9375,-8.0625,0.11962890625,0.98779296875,0.3544921875
1969/12/31/18:00:19.313,71,1731183841,18827351,RU_myo,0.4500432048378661,0.3387684506781712,0.4233079649465077,0.709582565609683,0.9375,-22.4375,-14.4375,0.09912109375,1.158203125,0.33984375
1969/12/31/18:00:19.337,72,1731183841,41530268,RU_myo,0.4579174580695287,0.3374257142373173,0.418669134217395,0.7079347745521719,-44.6875,-28.6875,-28.0625,0.07568359375,1.1015625,0.3447265625
1969/12/31/18:00:19.359,73,1731183841,62427879,RU_myo,0.4684202086545819,0.3349869826813064,0.4128738977507938,0.7056212681843845,-44.1875,-34.75,-43.8125,0.09912109375,0.95849609375,0.47265625
1969/12/31/18:00:19.375,74,1731183841,78860071,RU_myo,0.4777378136735105,0.3327745700968416,0.408704791153421,0.7028428420148809,-23.25,-29.5,-44.75,0.11669921875,0.87060546875,0.6044921875
1969/12/31/18:00:19.399,75,1731183841,101437287,RU_myo,0.4840968381198661,0.3315614707687697,0.4087752521609814,0.6990136162083858,8.875,-17.375,-40.875,0.091796875,0.84228515625,0.65771484375
1969/12/31/18:00:19.421,76,1731183841,122518498,RU_myo,0.4880695662479387,0.3326026846529537,0.4154939391507902,0.6917574279999862,41.375,-8.5625,-46.5625,0.06298828125,0.9921875,0.51611328125
1969/12/31/18:00:19.437,77,1731183841,138971134,RU_myo,0.4928819058772409,0.3319857196366951,0.4242751860994057,0.6832594494600414,47.75,-0.9375,-61.5625,0.0478515625,1.0791015625,0.5576171875
1969/12/31/18:00:19.461,78,1731183841,161447913,RU_myo,0.499231392132637,0.3277140658222434,0.4306854998028961,0.6766694233014323,33.6875,6.625,-66.6875,0.01904296875,0.9326171875,0.68310546875
1969/12/31/18:00:19.484,79,1731183841,183938404,RU_myo,0.5041932347574666,0.3220488506755924,0.4367436555314374,0.6718100171598882,29.8125,18.0625,-59.1875,0.0068359375,0.76806640625,0.658203125
1969/12/31/18:00:19.500,80,1731183841,198962492,RU_myo,0.5075949334290883,0.3158734704780582,0.4437488174638614,0.6675764534528545,20.8125,28.25,-54.625,-0.01953125,0.91552734375,0.5224609375
1969/12/31/18:00:19.531,81,1731183841,229051574,RU_myo,0.5114267756114342,0.3065875037470145,0.4503290070964509,0.6645679356554834,-4.5,39.125,-58.4375,-0.0693359375,1.1123046875,0.4423828125
1969/12/31/18:00:19.546,82,1731183841,243966540,RU_myo,0.5182773188881257,0.2921909699113718,0.4528441206961494,0.6640370924724908,-38.3125,43.5,-68.25,-0.099609375,0.93701171875,0.5146484375
