time,.header.seq,.header.stamp.secs,.header.stamp.nsecs,.header.frame_id,.orientation.x,.orientation.y,.orientation.z,.orientation.w,.angular_velocity.x,.angular_velocity.y,.angular_velocity.z,.linear_acceleration.x,.linear_acceleration.y,.linear_acceleration.z
1969/12/31/18:00:06.495,1,1730345055,162997548,RU_myo,-0.5491195359116575,-0.6898630781826681,0.3592439244610444,-0.30577846781342716,-11.75,12.75,-16.1875,0.9228515625,0.6123046875,-0.26171875
1969/12/31/18:00:06.523,2,1730345055,191488822,RU_myo,-0.5523565104674648,-0.6909644259670905,0.35466781020181637,-0.30278902192586665,-7.8125,9.1875,-30.4375,0.93017578125,0.716796875,-0.2734375
1969/12/31/18:00:06.531,3,1730345055,199711371,RU_myo,-0.5553488126154419,-0.6936519678398172,0.348626488367887,-0.2981513297754076,-6.5625,11.625,-40.5,0.833984375,0.73828125,-0.376953125
1969/12/31/18:00:06.554,4,1730345055,222852745,RU_myo,-0.5564194036797804,-0.6975840500230218,0.3428720203875185,-0.29362002315492197,6.5625,0.75,-42.3125,0.8330078125,0.6875,-0.3115234375
1969/12/31/18:00:06.575,5,1730345055,243816960,RU_myo,-0.555107394629267,-0.696768116227346,0.3441726881049408,-0.2965048623539284,4.4375,-2.1875,-12.1875,1.07080078125,0.2265625,-0.12890625
1969/12/31/18:00:06.591,6,1730345055,259608388,RU_myo,-0.557585850129522,-0.6927100918312253,0.34159457127571524,-0.30424315487036635,9.0,28.8125,5.3125,1.18896484375,0.6181640625,0.1015625
1969/12/31/18:00:06.615,7,1730345055,283014047,RU_myo,-0.5685091314810221,-0.6855066628872615,0.3356126370385551,-0.30698882784214077,-36.8125,49.125,-5.5,1.07080078125,1.01513671875,0.03857421875
1969/12/31/18:00:06.637,8,1730345055,305400372,RU_myo,-0.5866441159148466,-0.67428674496746,0.3295753460195767,-0.3042468703532574,-91.125,49.5625,-35.4375,1.0576171875,0.9140625,0.07421875
1969/12/31/18:00:06.658,9,1730345055,326423506,RU_myo,-0.6068999867196186,-0.6635985072005645,0.31980650949424794,-0.298384355900263,-96.75,54.25,-59.8125,0.8876953125,0.92333984375,0.13720703125
1969/12/31/18:00:06.675,10,1730345055,342995912,RU_myo,-0.6246653387408467,-0.6553035409927181,0.3076026680267579,-0.29283285737944137,-81.875,64.1875,-72.125,0.90576171875,0.91748046875,0.0185546875
1969/12/31/18:00:06.697,11,1730345055,365428340,RU_myo,-0.6442530826516569,-0.6454737213076851,0.29136644719391913,-0.28880310601626,-81.9375,86.1875,-93.25,0.8515625,0.7099609375,0.13818359375
1969/12/31/18:00:06.718,12,1730345055,386511250,RU_myo,-0.6636725596511657,-0.6355973915952952,0.2696436792844262,-0.2878315055467075,-71.3125,122.25,-99.8125,0.765625,0.7275390625,0.29052734375
1969/12/31/18:00:06.735,13,1730345055,402932252,RU_myo,-0.6858787360681831,-0.6200861326261559,0.2441283986717149,-0.29234375740937857,-88.625,171.25,-89.625,0.794921875,0.70556640625,0.31787109375
1969/12/31/18:00:06.757,14,1730345055,425405553,RU_myo,-0.7124376498085151,-0.5950712829292403,0.21691111174671998,-0.3021131128717681,-130.8125,218.8125,-70.25,0.775390625,0.619140625,0.40185546875
1969/12/31/18:00:06.778,15,1730345055,446529640,RU_myo,-0.739352217747223,-0.5641878736053598,0.1875540172640925,-0.3160282139256332,-147.375,253.3125,-55.75,0.80322265625,0.54150390625,0.45458984375
1969/12/31/18:00:06.794,16,1730345055,462621060,RU_myo,-0.764600167907603,-0.529873775365087,0.15630116778507114,-0.33194925872042247,-151.25,274.0625,-46.875,0.8203125,0.57080078125,0.49365234375
1969/12/31/18:00:06.817,17,1730345055,485411400,RU_myo,-0.7883577732653217,-0.49180049059162056,0.12523884421618334,-0.3477636132279789,-165.3125,279.625,-40.0625,0.75732421875,0.57373046875,0.49853515625
1969/12/31/18:00:06.846,18,1730345055,513923048,RU_myo,-0.8088707912890812,-0.4528040745924465,0.09716458912942105,-0.3622920861006554,-166.6875,262.75,-29.8125,0.6845703125,0.5283203125,0.54931640625
1969/12/31/18:00:06.854,19,1730345055,522878721,RU_myo,-0.825243394316164,-0.4152766847812425,0.07025036216684452,-0.3762758321099883,-152.3125,251.5,-22.1875,0.6640625,0.46337890625,0.55322265625
1969/12/31/18:00:06.877,20,1730345055,545420831,RU_myo,-0.8361877111146864,-0.38223805814986356,0.04388139291230271,-0.39084344952765865,-118.875,238.875,-7.8125,0.6142578125,0.42529296875,0.580078125
1969/12/31/18:00:06.898,21,1730345055,566396942,RU_myo,-0.8409199923439756,-0.35674098963931905,0.01763869050569088,-0.4065443510671521,-69.8125,222.5625,10.0625,0.5615234375,0.4287109375,0.57470703125
1969/12/31/18:00:06.916,22,1730345055,584391446,RU_myo,-0.8406354541639551,-0.33969630738177536,-0.009459742659751202,-0.42172143083148905,-17.3125,205.875,16.75,0.537109375,0.4462890625,0.576171875
1969/12/31/18:00:06.937,23,1730345055,605350581,RU_myo,-0.8358750924424756,-0.330785849958982,-0.037716910567278765,-0.43642981790713664,34.5625,190.1875,23.875,0.45361328125,0.427734375,0.64208984375
1969/12/31/18:00:06.958,24,1730345055,626444751,RU_myo,-0.826917343742931,-0.32944865462575407,-0.0684774713764535,-0.4505353776301068,85.875,182.9375,28.5,0.41796875,0.39404296875,0.63720703125
1969/12/31/18:00:06.975,25,1730345055,642877750,RU_myo,-0.8142271474352644,-0.3337226626321884,-0.10363223868863496,-0.4635986366777804,130.625,189.125,26.6875,0.38720703125,0.3837890625,0.546875
1969/12/31/18:00:06.997,26,1730345055,665438925,RU_myo,-0.798406834951829,-0.3412240188209506,-0.14128663988025408,-0.47555313086260903,158.875,191.25,27.5,0.306640625,0.4150390625,0.5048828125
1969/12/31/18:00:07.018,27,1730345055,686414273,RU_myo,-0.7815802809977306,-0.34947123918421097,-0.1753459430974918,-0.486061639689671,156.3125,169.0,32.125,0.17333984375,0.56640625,0.64697265625
1969/12/31/18:00:07.035,28,1730345055,702892941,RU_myo,-0.7662567511836215,-0.35746441988709443,-0.20213798167424565,-0.49417609831412046,130.0,129.5,33.5625,0.04833984375,0.8876953125,0.572265625
1969/12/31/18:00:07.057,29,1730345055,725371902,RU_myo,-0.7563604376626321,-0.35746010517147064,-0.2191632640721788,-0.5021041975833513,54.1875,102.875,27.9375,0.0556640625,0.93408203125,0.39208984375
1969/12/31/18:00:07.078,30,1730345055,746512329,RU_myo,-0.7519796988282791,-0.346236574259624,-0.230763350480458,-0.5112680737833369,-24.625,108.4375,12.75,0.13671875,0.88330078125,0.2578125
1969/12/31/18:00:07.095,31,1730345055,762897636,RU_myo,-0.7499811889230523,-0.3337318636906942,-0.23943491244670687,-0.5184806477784285,-55.25,92.625,1.0,0.03173828125,0.8818359375,0.37890625
1969/12/31/18:00:07.117,32,1730345055,785331612,RU_myo,-0.7480590630352151,-0.3227328322860583,-0.24650489969806916,-0.5248680706618952,-39.0,78.4375,3.6875,-0.005859375,0.599609375,0.396484375
1969/12/31/18:00:07.146,33,1730345055,814048762,RU_myo,-0.7433987153032939,-0.3171346243609126,-0.2553678345508195,-0.5306328760957995,2.5625,70.625,15.875,-0.048828125,0.36083984375,0.31201171875
1969/12/31/18:00:07.155,34,1730345055,822860475,RU_myo,-0.7331269999297323,-0.3228029222967328,-0.26799539266495626,-0.5352583907245881,76.1875,59.8125,36.375,-0.025390625,0.3291015625,0.3134765625
1969/12/31/18:00:07.177,35,1730345055,845305183,RU_myo,-0.717126496611184,-0.34190150076730663,-0.2866064704754145,-0.5354341067889291,164.8125,44.75,44.6875,-0.00732421875,0.52880859375,0.27099609375
1969/12/31/18:00:07.198,36,1730345055,866389878,RU_myo,-0.7000030147449755,-0.36568596899319034,-0.3061216322546466,-0.5315628821646675,193.6875,27.5,37.25,-0.03564453125,0.837890625,0.26953125
1969/12/31/18:00:07.214,37,1730345055,882254815,RU_myo,-0.6858046604807597,-0.38577656482147216,-0.32071758394824174,-0.5272462812043502,157.625,12.875,31.0,-0.0625,1.05712890625,0.30419921875
1969/12/31/18:00:07.237,38,1730345055,905420784,RU_myo,-0.6763005935778008,-0.3987860372202284,-0.32847665324751596,-0.5250621790948309,81.75,3.5,25.875,-0.02099609375,1.12841796875,0.3076171875
1969/12/31/18:00:07.258,39,1730345055,926447333,RU_myo,-0.6735979872080928,-0.40164431945424106,-0.32822415286809126,-0.5265135304561218,0.25,-0.0625,17.25,0.017578125,1.13671875,0.3779296875
1969/12/31/18:00:07.274,40,1730345055,942218481,RU_myo,-0.6765486812383618,-0.39646912343927815,-0.32237529402805837,-0.53025303947667,-59.6875,-2.875,6.6875,0.0185546875,1.04296875,0.43310546875
1969/12/31/18:00:07.297,41,1730345055,965486068,RU_myo,-0.6824515201624165,-0.38773157821425797,-0.31309035042328714,-0.5346948460152863,-85.75,-9.0,1.9375,0.0224609375,0.89111328125,0.486328125
1969/12/31/18:00:07.318,42,1730345055,986566048,RU_myo,-0.687386651430549,-0.38089142249649793,-0.30387091693800083,-0.5385942643056553,-67.25,-13.5,5.1875,0.046875,0.7490234375,0.55712890625
1969/12/31/18:00:07.334,43,1730345056,2288849,RU_myo,-0.6893473628230834,-0.3781492926119367,-0.29801533179859374,-0.54128568046728,-26.75,-9.5,8.75,0.06689453125,0.66796875,0.60986328125
1969/12/31/18:00:07.357,44,1730345056,25419895,RU_myo,-0.6872412435019815,-0.3813395461279201,-0.2976621265150234,-0.5419196270918377,23.25,-4.5625,12.375,0.0478515625,0.72802734375,0.60009765625
1969/12/31/18:00:07.378,45,1730345056,46515475,RU_myo,-0.6826491827274301,-0.3881060485439185,-0.3018060088142282,-0.5406264157889653,52.3125,0.3125,11.1875,0.01708984375,0.85400390625,0.525390625
1969/12/31/18:00:07.394,46,1730345056,62299063,RU_myo,-0.6778888791520915,-0.39530802829459766,-0.3071769810725197,-0.5383683985775276,56.5,1.4375,7.6875,-0.01220703125,0.9453125,0.4970703125
1969/12/31/18:00:07.417,47,1730345056,85435398,RU_myo,-0.674566452545359,-0.40035790542816924,-0.3113759197400182,-0.5363941510378323,40.3125,1.375,2.9375,-0.0078125,0.9677734375,0.4833984375
1969/12/31/18:00:07.438,48,1730345056,106528178,RU_myo,-0.67360882006683,-0.40201696999005243,-0.31254423915577023,-0.5356767793536801,12.625,-0.75,0.75,0.00390625,0.93994140625,0.505859375
1969/12/31/18:00:07.461,49,1730345056,129016996,RU_myo,-0.6747248261479857,-0.40105082158465977,-0.31072131071184034,-0.5360568202675494,-11.75,-4.9375,0.1875,0.0185546875,0.9052734375,0.513671875
1969/12/31/18:00:07.477,50,1730345056,145410721,RU_myo,-0.6768980186392385,-0.39780193720048296,-0.30723150534937577,-0.5377466812938717,-30.25,-3.1875,1.3125,0.025390625,0.85400390625,0.50341796875
1969/12/31/18:00:07.498,51,1730345056,166496024,RU_myo,-0.679228905169936,-0.3937196214620592,-0.3034527914911422,-0.5399531066617327,-35.1875,-0.8125,2.5,0.0166015625,0.80859375,0.49853515625
1969/12/31/18:00:07.514,52,1730345056,182316864,RU_myo,-0.6808147785115302,-0.39011815905385033,-0.3004007476318917,-0.5422715649551721,-27.625,1.625,4.25,0.017578125,0.73486328125,0.5009765625
1969/12/31/18:00:07.537,53,1730345056,205476311,RU_myo,-0.6808138034249368,-0.3879814745291191,-0.2967383874721688,-0.5458106538798037,-19.3125,0.6875,17.25,0.03466796875,0.7177734375,0.55078125
1969/12/31/18:00:07.560,54,1730345056,227864780,RU_myo,-0.6781168662009002,-0.3894396294868099,-0.2936817892321782,-0.5497684034504283,4.125,-2.3125,31.1875,0.05810546875,0.75390625,0.60986328125
1969/12/31/18:00:07.581,55,1730345056,248895106,RU_myo,-0.6745060755804376,-0.39242436355249855,-0.2928840623154651,-0.5525066505817682,12.4375,0.0625,28.3125,0.04541015625,0.892578125,0.54345703125
1969/12/31/18:00:07.597,56,1730345056,265375061,RU_myo,-0.6722028108847107,-0.3933491116898457,-0.29368439494981186,-0.5542285932126437,5.25,7.375,14.75,0.02978515625,0.98681640625,0.5458984375
1969/12/31/18:00:07.620,57,1730345056,287900123,RU_myo,-0.6711532140743034,-0.3926707083162742,-0.2934349962052606,-0.5561105834905021,-2.625,7.1875,9.8125,0.04833984375,0.89453125,0.5703125
1969/12/31/18:00:07.641,58,1730345056,308874941,RU_myo,-0.6693443938324736,-0.39335503038664105,-0.2918578363551462,-0.5586312789959543,-0.375,2.0,17.5625,0.091796875,0.849609375,0.5576171875
1969/12/31/18:00:07.657,59,1730345056,325257500,RU_myo,-0.6673721461151554,-0.3941371119900936,-0.29160531450738114,-0.5605681904039965,2.5625,5.75,12.8125,0.10205078125,0.95361328125,0.5654296875
1969/12/31/18:00:07.680,60,1730345056,347911156,RU_myo,-0.6663464958835378,-0.39365588005576285,-0.2938686918555811,-0.5609443710996149,8.625,12.5625,-1.1875,0.0576171875,0.98583984375,0.6240234375
1969/12/31/18:00:07.701,61,1730345056,369002754,RU_myo,-0.6656138103712601,-0.3930453822474707,-0.29679808911016303,-0.560699988619179,17.0,14.875,-8.8125,0.09228515625,0.89013671875,0.662109375
1969/12/31/18:00:07.717,62,1730345056,385390935,RU_myo,-0.6630268066488814,-0.3945570972924354,-0.3009375168985304,-0.5604968880949306,35.875,17.25,-4.3125,0.12353515625,0.79150390625,0.64501953125
1969/12/31/18:00:07.740,63,1730345056,407929889,RU_myo,-0.658854612771016,-0.3973879003012585,-0.3069365305813283,-0.5601637458093918,47.8125,22.375,-1.0,0.10888671875,0.80078125,0.58447265625
1969/12/31/18:00:07.762,64,1730345056,430454587,RU_myo,-0.6533929862724996,-0.40145890750051394,-0.31546687334602563,-0.558917706733005,59.4375,26.0,-0.25,0.04833984375,0.884765625,0.51708984375
1969/12/31/18:00:07.777,65,1730345056,445290997,RU_myo,-0.6478709151796208,-0.40599503794393194,-0.3250645778847537,-0.5565647551128556,63.625,24.5625,-2.0625,-0.0146484375,0.92431640625,0.46142578125
1969/12/31/18:00:07.799,66,1730345056,467907256,RU_myo,-0.6432705311458607,-0.4095204235283421,-0.3342687570290208,-0.5538595891981676,55.9375,22.3125,-4.375,-0.0693359375,0.9150390625,0.41455078125
1969/12/31/18:00:07.821,67,1730345056,488857777,RU_myo,-0.639496376994546,-0.4119679847979753,-0.3428183956459596,-0.5511826475126689,51.8125,22.1875,-8.25,-0.0654296875,0.83349609375,0.4150390625
1969/12/31/18:00:07.837,68,1730345056,505446691,RU_myo,-0.6354187058665653,-0.415332272924981,-0.3513082384946643,-0.5480188800284209,55.1875,20.1875,-10.5,-0.0185546875,0.7958984375,0.3623046875
1969/12/31/18:00:07.859,69,1730345056,527806922,RU_myo,-0.6311996305217219,-0.4195994449658517,-0.35936022283039054,-0.5444112071411487,53.5625,14.75,-8.0625,-0.0380859375,0.8662109375,0.296875
1969/12/31/18:00:07.881,70,1730345056,549048226,RU_myo,-0.6271154165562817,-0.4248516218635792,-0.36760254539352644,-0.53953287419538,53.4375,7.3125,-7.0,-0.10498046875,0.9697265625,0.21240234375
1969/12/31/18:00:07.897,71,1730345056,565417026,RU_myo,-0.6246047729518168,-0.4294844427654812,-0.374982580126633,-0.5336666146854295,45.375,0.375,-14.4375,-0.1171875,0.97705078125,0.17724609375
1969/12/31/18:00:07.919,72,1730345056,587870886,RU_myo,-0.6235597513326236,-0.4326529389445991,-0.38022680344545806,-0.5285945978557163,34.6875,-2.125,-18.875,-0.0517578125,0.9609375,0.24951171875
1969/12/31/18:00:07.941,73,1730345056,608938194,RU_myo,-0.6229486151777783,-0.434056093969272,-0.3840102563631411,-0.5254202633550988,25.1875,2.5,-15.5625,-0.02490234375,0.9072265625,0.3203125
1969/12/31/18:00:07.957,74,1730345056,625388512,RU_myo,-0.622944488410307,-0.4341752807436979,-0.38687617439335126,-0.5232196628922859,15.75,3.875,-13.0625,-0.05322265625,0.85693359375,0.3203125
1969/12/31/18:00:07.979,75,1730345056,647889628,RU_myo,-0.6228269105890991,-0.43466665920779657,-0.38889300090874473,-0.5214535153427989,16.9375,1.3125,-8.375,-0.05029296875,0.7734375,0.3349609375
1969/12/31/18:00:08.001,76,1730345056,668977979,RU_myo,-0.6206107755698228,-0.4377658661778286,-0.3912612530414135,-0.5197287210888594,32.4375,0.0,1.0625,-0.01611328125,0.78369140625,0.33154296875
1969/12/31/18:00:08.017,77,1730345056,685399285,RU_myo,-0.6177617802309527,-0.441197382858087,-0.3946302777092808,-0.5176699683776863,32.0,2.9375,0.375,-0.03466796875,0.9892578125,0.2783203125
1969/12/31/18:00:08.039,78,1730345056,707863175,RU_myo,-0.6164272961110419,-0.44279010230550586,-0.39841954346662195,-0.51499143807772,22.4375,3.6875,-8.1875,-0.09130859375,1.1162109375,0.2822265625
1969/12/31/18:00:08.061,79,1730345056,728992705,RU_myo,-0.6157554189891186,-0.4443765691009785,-0.4006774036736607,-0.5126717731696496,24.1875,-1.25,-6.9375,-0.0576171875,0.91162109375,0.3466796875
1969/12/31/18:00:08.077,80,1730345056,745309335,RU_myo,-0.6143981793322576,-0.4472345145670789,-0.4020106096415596,-0.5107676927417963,24.5,-3.8125,-4.9375,0.04443359375,0.9638671875,0.314453125
1969/12/31/18:00:08.099,81,1730345056,767865100,RU_myo,-0.6134828676278927,-0.4488214294205654,-0.4051843173678452,-0.5079603966640421,22.5,1.4375,-11.9375,-0.04296875,1.095703125,0.29248046875
1969/12/31/18:00:08.121,82,1730345056,788835430,RU_myo,-0.6133781777007402,-0.44950550037472153,-0.41032253618727127,-0.5033363016415925,30.0,2.5,-20.4375,-0.1572265625,0.95849609375,0.279296875
1969/12/31/18:00:08.137,83,1730345056,805264757,RU_myo,-0.6125231033546487,-0.45212944894890766,-0.4150216324045049,-0.4981480240714072,37.25,-3.5625,-17.4375,-0.111328125,0.83984375,0.21630859375
1969/12/31/18:00:08.159,84,1730345056,827821789,RU_myo,-0.6111701098458692,-0.4549292988607059,-0.41818829565247606,-0.4945998172749075,28.1875,-2.9375,-10.125,-0.0654296875,0.99658203125,0.20458984375
1969/12/31/18:00:08.188,85,1730345056,856372926,RU_myo,-0.6112196191288531,-0.4551648446792798,-0.4211709028066117,-0.49178309445235135,13.0625,1.25,-14.1875,-0.115234375,0.9970703125,0.19580078125
1969/12/31/18:00:08.197,86,1730345056,864826373,RU_myo,-0.6128050438643843,-0.4544924969284005,-0.42300087232586864,-0.48885254470209316,1.5,-4.3125,-16.9375,-0.13037109375,0.90478515625,0.15185546875
1969/12/31/18:00:08.220,87,1730345056,887947365,RU_myo,-0.6148323920355349,-0.4540751436117113,-0.42288799329106824,-0.48678808406545826,-6.0625,-10.5625,-10.9375,-0.1171875,0.98828125,0.1748046875
1969/12/31/18:00:08.240,88,1730345056,908803425,RU_myo,-0.6171952079391919,-0.45259761317878444,-0.42244885092011136,-0.48555375006073476,-12.4375,-6.9375,-12.6875,-0.11083984375,1.1552734375,0.24072265625
1969/12/31/18:00:08.256,89,1730345056,924679047,RU_myo,-0.6217347010383993,-0.447854052833982,-0.42264776722203945,-0.48398509661671807,-23.75,-1.5,-27.8125,-0.14208984375,1.1494140625,0.29052734375
1969/12/31/18:00:08.279,90,1730345056,947830767,RU_myo,-0.6273903624645503,-0.441614461361234,-0.4232443738999665,-0.48189438735603973,-25.9375,0.0625,-37.6875,-0.13671875,0.96435546875,0.31494140625
1969/12/31/18:00:08.304,91,1730345056,971949117,RU_myo,-0.6317505939813438,-0.43693387134696554,-0.4238118176607527,-0.479962000876175,-17.0625,0.5,-33.125,-0.09423828125,0.93701171875,0.32080078125
1969/12/31/18:00:08.317,92,1730345056,984822867,RU_myo,-0.6350923112051656,-0.4322851086167776,-0.42538856516432866,-0.4783637838964144,-14.0,7.0,-31.25,-0.13134765625,1.10107421875,0.34619140625
1969/12/31/18:00:08.340,93,1730345057,7922177,RU_myo,-0.6389302077722645,-0.42623828169657996,-0.4286795089686108,-0.4757341646370047,-13.8125,12.375,-41.5625,-0.18212890625,1.07958984375,0.34228515625
1969/12/31/18:00:08.361,94,1730345057,28913824,RU_myo,-0.6436957642093685,-0.41904002247667815,-0.4324058490019319,-0.47232023506364873,-15.875,13.375,-51.125,-0.17822265625,0.9267578125,0.32470703125
1969/12/31/18:00:08.376,95,1730345057,44664836,RU_myo,-0.6477865778997335,-0.4131210990958447,-0.4357637239687297,-0.4688427069366641,-12.375,10.0625,-46.0625,-0.1767578125,0.90625,0.29150390625
1969/12/31/18:00:08.399,96,1730345057,67817969,RU_myo,-0.6511994607917327,-0.4077472912417588,-0.4388730386647938,-0.46590971730872427,-11.1875,10.5625,-39.9375,-0.20654296875,0.93603515625,0.298828125
1969/12/31/18:00:08.421,97,1730345057,88927255,RU_myo,-0.6545542378526729,-0.40268054651300095,-0.4422284389259177,-0.46242960001955263,-6.625,10.375,-44.1875,-0.1669921875,0.869140625,0.29931640625
1969/12/31/18:00:08.436,98,1730345057,104833948,RU_myo,-0.657188518293279,-0.3982923728066436,-0.4458970388791508,-0.4589578062375053,-1.375,12.25,-43.125,-0.14111328125,0.830078125,0.29541015625
1969/12/31/18:00:08.459,99,1730345057,127832959,RU_myo,-0.6583343930713883,-0.3951715208248113,-0.4497326543564532,-0.4562629018820524,2.125,14.0625,-31.375,-0.19580078125,0.86962890625,0.2548828125
1969/12/31/18:00:08.482,100,1730345057,150260964,RU_myo,-0.6595658513629038,-0.3920654232585633,-0.4530967780622002,-0.45382915431984383,0.875,11.8125,-27.0,-0.22998046875,0.818359375,0.2578125
1969/12/31/18:00:08.496,101,1730345057,164689488,RU_myo,-0.6603605417249018,-0.3899300832791495,-0.45608820039835407,-0.4515108398965641,6.3125,10.125,-23.4375,-0.212890625,0.79833984375,0.27294921875
1969/12/31/18:00:08.519,102,1730345057,187918152,RU_myo,-0.6600182114674814,-0.3892117749702357,-0.4593394728596509,-0.4493299494011095,12.4375,10.25,-16.25,-0.24560546875,0.88330078125,0.267578125
1969/12/31/18:00:08.542,103,1730345057,210400237,RU_myo,-0.6597982908359067,-0.38821357210315444,-0.4622432943105316,-0.44753499830725224,8.75,9.875,-14.1875,-0.2744140625,0.90234375,0.26416015625
1969/12/31/18:00:08.563,104,1730345057,231404477,RU_myo,-0.6599920825882188,-0.3871213038521428,-0.46481410218160485,-0.4455282229419269,8.8125,7.0625,-15.125,-0.2587890625,0.80029296875,0.25341796875
1969/12/31/18:00:08.580,105,1730345057,247880783,RU_myo,-0.6596947931755403,-0.38730901632824294,-0.4665895729324641,-0.4439467041871477,11.3125,4.25,-9.375,-0.22802734375,0.80810546875,0.24951171875
1969/12/31/18:00:08.602,106,1730345057,270440519,RU_myo,-0.6583517166195152,-0.3885904681298279,-0.46811510767328096,-0.443214069351156,11.875,4.375,-1.3125,-0.23779296875,0.912109375,0.2294921875
1969/12/31/18:00:08.617,107,1730345057,284808207,RU_myo,-0.6576900664927118,-0.3888403316281614,-0.4694647356590515,-0.4425492457441215,5.4375,4.1875,-3.0625,-0.26904296875,0.91552734375,0.21923828125
1969/12/31/18:00:08.640,108,1730345057,307897784,RU_myo,-0.6574961757005952,-0.38883394926097575,-0.4704945714727456,-0.44174856768967863,5.125,2.125,-4.3125,-0.259765625,0.84619140625,0.2333984375
1969/12/31/18:00:08.662,109,1730345057,330539432,RU_myo,-0.6563935509683185,-0.3908455881358542,-0.47128507676219017,-0.44076933752609915,16.9375,-0.1875,2.125,-0.23486328125,0.82568359375,0.25537109375
1969/12/31/18:00:08.677,110,1730345057,344743721,RU_myo,-0.6546954374597611,-0.3933543483199553,-0.4717810880548106,-0.44053245712543637,15.875,-0.125,7.5625,-0.244140625,0.90283203125,0.24951171875
1969/12/31/18:00:08.699,111,1730345057,367857576,RU_myo,-0.6536300907631524,-0.39480233960287886,-0.4720661766622767,-0.4405137250353346,7.625,-0.375,7.0625,-0.2802734375,0.91357421875,0.224609375
1969/12/31/18:00:08.722,112,1730345057,390412300,RU_myo,-0.6531697774672952,-0.3959788372461046,-0.4714150029113613,-0.4408377221684053,3.625,-3.125,7.0625,-0.259765625,0.90576171875,0.2451171875
1969/12/31/18:00:08.745,113,1730345057,412934056,RU_myo,-0.6524222460097078,-0.3977395488536264,-0.4700613787433835,-0.44180398866831383,3.625,-4.375,11.125,-0.2197265625,0.91259765625,0.2568359375
1969/12/31/18:00:08.760,114,1730345057,427895621,RU_myo,-0.6520607313256219,-0.39823065068323504,-0.4684168956312382,-0.44363809958872574,-5.0,-1.25,11.0,-0.23095703125,0.9306640625,0.26904296875
1969/12/31/18:00:08.782,115,1730345057,450339600,RU_myo,-0.6518761713936937,-0.3984128496262553,-0.46701212091607003,-0.4452239182021342,-4.5,-1.1875,10.9375,-0.25146484375,0.86572265625,0.25830078125
1969/12/31/18:00:08.796,116,1730345057,464711128,RU_myo,-0.6507767896525362,-0.39993813210101,-0.46560781471060664,-0.4469322358272083,0.6875,-2.3125,16.3125,-0.2255859375,0.87060546875,0.23828125
1969/12/31/18:00:08.820,117,1730345057,487932149,RU_myo,-0.6490018077157774,-0.40219314583853427,-0.4643835579188782,-0.44875966636581827,3.5625,-1.1875,18.6875,-0.22216796875,0.93896484375,0.23486328125
1969/12/31/18:00:08.842,118,1730345057,510425320,RU_myo,-0.6477189588887201,-0.4035350754897029,-0.4637113586767639,-0.450101509639528,2.25,0.125,14.3125,-0.25390625,0.9501953125,0.2392578125
1969/12/31/18:00:08.856,119,1730345057,524739477,RU_myo,-0.646756602471208,-0.4049476321030919,-0.4627449806489289,-0.45120992375857705,3.625,-1.8125,13.1875,-0.22265625,0.87353515625,0.2490234375
1969/12/31/18:00:08.879,120,1730345057,547866807,RU_myo,-0.6450015452066424,-0.4072762406476083,-0.461229814262547,-0.4531733982928955,4.75,-1.75,19.5625,-0.1796875,0.85888671875,0.2373046875
1969/12/31/18:00:08.910,121,1730345057,578034099,RU_myo,-0.6424758599083276,-0.4098858055613497,-0.45999245332279515,-0.4556592353068845,3.5625,1.125,24.375,-0.20361328125,0.9638671875,0.21533203125
1969/12/31/18:00:08.923,122,1730345057,591564788,RU_myo,-0.6407520674210972,-0.41152406806557373,-0.45888320744254024,-0.45772364088563,0.4375,0.3125,19.8125,-0.23095703125,0.98583984375,0.22900390625
1969/12/31/18:00:08.940,123,1730345057,608450322,RU_myo,-0.6396842954627369,-0.4131307123353941,-0.4571963607777275,-0.4594545726785119,1.1875,-3.3125,18.3125,-0.20703125,0.87060546875,0.2490234375
1969/12/31/18:00:08.962,124,1730345057,630411543,RU_myo,-0.6377919878663567,-0.4157549302723083,-0.4551820713404104,-0.461712573034353,3.8125,-4.125,25.4375,-0.1787109375,0.83447265625,0.22314453125
1969/12/31/18:00:08.983,125,1730345057,651472476,RU_myo,-0.6351392875974053,-0.41872688115747075,-0.45345295540008856,-0.46437732673476095,4.5625,-1.0625,28.25,-0.18359375,0.9619140625,0.224609375
1969/12/31/18:00:08.999,126,1730345057,667260781,RU_myo,-0.6328182817243374,-0.4209837503456919,-0.4523530816993721,-0.4665730315153399,4.3125,1.0,23.125,-0.20166015625,1.0361328125,0.2431640625
1969/12/31/18:00:09.023,127,1730345057,690990687,RU_myo,-0.6311835770826161,-0.4229454833864368,-0.45077566237983,-0.46853571081640333,1.4375,-1.8125,20.125,-0.16845703125,0.95068359375,0.2314453125
1969/12/31/18:00:09.043,128,1730345057,711522779,RU_myo,-0.6295376310451684,-0.42514388151823973,-0.44845782965777,-0.47097837118522196,-1.0,-3.8125,23.4375,-0.1435546875,0.91748046875,0.22119140625
1969/12/31/18:00:09.059,129,1730345057,727887054,RU_myo,-0.6275877392353054,-0.42722106142634814,-0.4464460091905338,-0.47360506238120875,-1.3125,-1.8125,24.1875,-0.14794921875,0.97412109375,0.21728515625
1969/12/31/18:00:09.082,130,1730345057,750413239,RU_myo,-0.6257618626605578,-0.4291775498126443,-0.4449848571791794,-0.47562295871586135,0.125,-1.3125,20.8125,-0.1572265625,1.01611328125,0.2197265625
1969/12/31/18:00:09.103,131,1730345057,771565661,RU_myo,-0.6247053121211442,-0.4309343697623485,-0.4430183529393695,-0.47725630527426216,-1.375,-5.1875,18.25,-0.14697265625,0.96484375,0.22412109375
1969/12/31/18:00:09.119,132,1730345057,787308001,RU_myo,-0.623852641107417,-0.43288855247259916,-0.4403952903767483,-0.47902752690785716,-3.8125,-7.9375,18.0625,-0.10546875,0.95849609375,0.21923828125
1969/12/31/18:00:09.127,133,1730345057,794851396,RU_myo,-0.6230036700305551,-0.43454017737240913,-0.43789687818076345,-0.4809236794514865,-4.8125,-6.4375,16.875,-0.09423828125,0.9921875,0.23046875
1969/12/31/18:00:09.148,134,1730345057,815893577,RU_myo,-0.6225589264724551,-0.43580955729240295,-0.43526029444187336,-0.48274101640987355,-7.3125,-6.8125,15.6875,-0.0986328125,0.98974609375,0.2314453125
1969/12/31/18:00:09.170,135,1730345057,838321873,RU_myo,-0.6222861497478029,-0.43705287547509,-0.43253647933137307,-0.4844140026037968,-6.625,-8.0,14.625,-0.0869140625,0.96630859375,0.2421875
1969/12/31/18:00:09.185,136,1730345057,853380896,RU_myo,-0.6221463288247241,-0.4378948312063366,-0.4298387869249099,-0.4862310968948967,-6.4375,-6.1875,13.5625,-0.0732421875,0.93798828125,0.27099609375
1969/12/31/18:00:09.209,137,1730345057,877353587,RU_myo,-0.6214260090306758,-0.439062925649841,-0.4275279113396075,-0.48813251033464394,-5.625,-4.3125,15.6875,-0.08056640625,1.0078125,0.25830078125
1969/12/31/18:00:09.230,138,1730345057,898362163,RU_myo,-0.6209944040659698,-0.4397922039999389,-0.4254498271001352,-0.48983794467159447,-6.6875,-4.1875,14.0,-0.10400390625,1.0546875,0.265625
1969/12/31/18:00:09.247,139,1730345057,914812395,RU_myo,-0.62122967642355,-0.44015211969413914,-0.42361284841888797,-0.49080745238217793,-7.4375,-5.6875,7.9375,-0.09375,0.986328125,0.25537109375
1969/12/31/18:00:09.268,140,1730345057,935920812,RU_myo,-0.6214246850040036,-0.4405267507718423,-0.42179002141648686,-0.49179337180929694,-4.1875,-4.9375,7.3125,-0.06689453125,0.91064453125,0.275390625
1969/12/31/18:00:09.285,141,1730345057,953765810,RU_myo,-0.6203991364888501,-0.44193902088694187,-0.42045545019888725,-0.4929625012710716,3.1875,-2.75,11.4375,-0.05029296875,0.9248046875,0.27880859375
1969/12/31/18:00:09.305,142,1730345057,973405824,RU_myo,-0.6190295525662466,-0.4432625101339494,-0.4198879346993766,-0.49397862550243515,4.0625,0.4375,11.4375,-0.0751953125,1.03759765625,0.27490234375
1969/12/31/18:00:09.328,143,1730345057,995748045,RU_myo,-0.6186055633149188,-0.4436310023417664,-0.41940187757499225,-0.49459150405525865,1.0625,0.0,5.75,-0.08935546875,1.0078125,0.2890625
1969/12/31/18:00:09.346,144,1730345058,13780637,RU_myo,-0.6184365762284678,-0.44382421615843465,-0.41849596399867794,-0.49539619947167407,-1.375,-1.125,5.0625,-0.06103515625,0.9228515625,0.27734375
1969/12/31/18:00:09.365,145,1730345058,33307864,RU_myo,-0.6180092019157366,-0.44406823554601027,-0.41727522353326996,-0.4967387808011239,-3.125,-0.125,8.5625,-0.05810546875,0.95068359375,0.2763671875
1969/12/31/18:00:09.395,146,1730345058,63417973,RU_myo,-0.6175188579999038,-0.44382260677755486,-0.4166634951141869,-0.49807979839268773,-5.75,2.4375,8.3125,-0.09326171875,1.0244140625,0.2587890625
1969/12/31/18:00:09.406,147,1730345058,73815918,RU_myo,-0.6180626043293537,-0.4427200683129388,-0.41586635587046666,-0.49905183327748837,-9.3125,1.5625,1.75,-0.08056640625,0.98779296875,0.27734375
1969/12/31/18:00:09.425,148,1730345058,93123086,RU_myo,-0.6181780248694326,-0.44216603713881325,-0.41519055219535494,-0.4999619290878065,-1.25,2.0625,0.8125,-0.03271484375,0.91552734375,0.32421875
1969/12/31/18:00:09.448,149,1730345058,115824690,RU_myo,-0.617155918278039,-0.4426043037334196,-0.41556711308892086,-0.5005237031050432,6.25,4.6875,3.5625,-0.04833984375,0.95703125,0.29638671875
1969/12/31/18:00:09.466,150,1730345058,133741467,RU_myo,-0.6162887981246122,-0.442534172628398,-0.4163519687865027,-0.5010016581308122,0.125,5.5,2.8125,-0.0869140625,0.99609375,0.2314453125
1969/12/31/18:00:09.485,151,1730345058,153397218,RU_myo,-0.6162873106295849,-0.4422279513588802,-0.41653405575826075,-0.5011225101583998,-3.125,1.3125,1.1875,-0.0966796875,0.95849609375,0.22509765625
1969/12/31/18:00:09.508,152,1730345058,175950664,RU_myo,-0.6159968741051587,-0.44266574139351195,-0.4161167826859182,-0.5014396430841161,2.1875,-1.125,3.25,-0.0546875,0.90673828125,0.2744140625
1969/12/31/18:00:09.525,153,1730345058,193700458,RU_myo,-0.6149609538305134,-0.4433992982908575,-0.41605685016500693,-0.502112323061099,3.8125,2.1875,6.125,-0.05078125,0.96875,0.265625
1969/12/31/18:00:09.545,154,1730345058,213267727,RU_myo,-0.6148305461727546,-0.44284399871247837,-0.4161122358354021,-0.502715823786478,-5.1875,2.9375,3.1875,-0.0986328125,1.00732421875,0.24169921875
1969/12/31/18:00:09.567,155,1730345058,235657921,RU_myo,-0.6151615642851441,-0.4426184804242351,-0.4157635257377123,-0.5027979925172158,-3.8125,-1.375,0.125,-0.07421875,0.9326171875,0.2412109375
1969/12/31/18:00:09.586,156,1730345058,253836537,RU_myo,-0.6146554033554297,-0.4437041785715395,-0.41544626458548406,-0.5027223272206012,8.75,-2.625,2.6875,-0.029296875,0.85595703125,0.29736328125
1969/12/31/18:00:09.605,157,1730345058,273374611,RU_myo,-0.6131962869100821,-0.44535615662216277,-0.4157552609168388,-0.5027879975679562,13.375,0.375,6.6875,-0.05029296875,0.943359375,0.29541015625
1969/12/31/18:00:09.628,158,1730345058,295916919,RU_myo,-0.6128678193062455,-0.44558334482721546,-0.41616666598778007,-0.5026468193393983,-0.4375,-0.0625,4.1875,-0.1279296875,1.0283203125,0.220703125
1969/12/31/18:00:09.645,159,1730345058,313724145,RU_myo,-0.6139140995524568,-0.4454676421745086,-0.41562332418254605,-0.5019216179261761,-9.0,-7.1875,-1.25,-0.109375,0.9775390625,0.17431640625
1969/12/31/18:00:09.665,160,1730345058,333430030,RU_myo,-0.6148351127668178,-0.44669229604331345,-0.4136740514525999,-0.5013158245251779,-14.375,-14.4375,1.25,-0.03125,0.88623046875,0.05859375
1969/12/31/18:00:09.687,161,1730345058,355779339,RU_myo,-0.616591369435404,-0.4476588829861119,-0.4089655316823362,-0.5021591396332282,-16.125,-18.4375,2.375,0.08154296875,1.17626953125,0.3310546875
1969/12/31/18:00:09.710,162,1730345058,378397367,RU_myo,-0.6149745311993879,-0.4485359100619593,-0.4096575082781155,-0.5027947784855654,15.3125,6.5,3.875,-0.021484375,1.21630859375,0.44189453125
1969/12/31/18:00:09.725,163,1730345058,393318186,RU_myo,-0.6194090725794029,-0.44333308732060134,-0.40677519644711013,-0.5043035931346543,-37.25,-2.3125,-9.375,-0.09521484375,0.88427734375,0.3193359375
1969/12/31/18:00:09.748,164,1730345058,415907274,RU_myo,-0.6200753994059967,-0.44253609459575605,-0.406405716992572,-0.5044826034931071,-6.0625,0.8125,-5.6875,0.00146484375,0.85302734375,0.2431640625
1969/12/31/18:00:09.770,165,1730345058,438319877,RU_myo,-0.6178885880705667,-0.44474063031116357,-0.4089758424200778,-0.503148312925104,29.0,6.25,-4.9375,0.017578125,0.89208984375,0.32861328125
1969/12/31/18:00:09.785,166,1730345058,453146307,RU_myo,-0.6165518688446754,-0.44584353612258504,-0.41172628263969313,-0.5015663490561812,14.4375,4.875,-3.75,-0.08837890625,0.8955078125,0.17822265625
1969/12/31/18:00:09.808,167,1730345058,475922580,RU_myo,-0.6172036574772651,-0.4470500139445236,-0.41183528929660684,-0.4995974626825761,-9.9375,-12.875,0.5625,-0.15625,0.87548828125,-0.0205078125
1969/12/31/18:00:09.830,168,1730345058,498403698,RU_myo,-0.621377376420868,-0.44822664300509324,-0.40666314302055234,-0.4976023720616184,-38.6875,-38.8125,-0.5,-0.1025390625,0.93212890625,-0.06884765625
1969/12/31/18:00:09.853,169,1730345058,521019611,RU_myo,-0.6289777518560942,-0.44796203169258014,-0.3962083800746908,-0.49672520108254903,-71.6875,-57.625,0.875,-0.05126953125,1.095703125,-0.02099609375
1969/12/31/18:00:09.868,170,1730345058,535977488,RU_myo,-0.6453944466683318,-0.44124840183565384,-0.3753357774950582,-0.4978844346023878,-136.4375,-91.0625,-3.8125,-0.1005859375,1.298828125,-0.03564453125
1969/12/31/18:00:09.899,171,1730345058,567138074,RU_myo,-0.6711154713386734,-0.4269847069375554,-0.34312578936577137,-0.49955257665578773,-225.625,-130.625,-15.625,-0.1123046875,1.2255859375,-0.21630859375
1969/12/31/18:00:09.905,172,1730345058,573354084,RU_myo,-0.7025714349785368,-0.40438136971575617,-0.303011394602887,-0.5010520744591546,-293.875,-147.4375,-32.125,0.04736328125,0.94091796875,-0.2626953125
1969/12/31/18:00:09.928,173,1730345058,595816737,RU_myo,-0.7346293664557004,-0.38022272601304424,-0.2607241549803732,-0.4977683071207687,-294.75,-162.4375,-52.625,0.2138671875,0.65869140625,-0.03173828125
1969/12/31/18:00:09.945,174,1730345058,613748443,RU_myo,-0.7628220542651415,-0.36069112254636265,-0.22019857362898076,-0.4894047566327042,-249.25,-171.8125,-61.8125,0.3740234375,0.39990234375,0.15576171875
1969/12/31/18:00:09.965,175,1730345058,633199970,RU_myo,-0.7841681781267457,-0.3512858614131487,-0.18540765235808648,-0.47676253463507956,-166.0,-173.4375,-61.0625,0.4833984375,0.2431640625,0.29833984375
1969/12/31/18:00:09.987,176,1730345058,655739785,RU_myo,-0.7973146482113627,-0.3550808805338111,-0.15733903575389566,-0.46200795215554313,-67.0625,-174.75,-47.8125,0.515625,0.16015625,0.3974609375
1969/12/31/18:00:10.005,177,1730345058,673662154,RU_myo,-0.8025826369214347,-0.3711410657885357,-0.13427238032145675,-0.4473101251708893,18.1875,-177.5,-25.625,0.52294921875,0.20361328125,0.45654296875
1969/12/31/18:00:10.028,178,1730345058,696352447,RU_myo,-0.8013271258437595,-0.397245869163521,-0.11260080328878418,-0.43288753264354807,80.3125,-191.625,-2.4375,0.49267578125,0.271484375,0.39013671875
1969/12/31/18:00:10.047,179,1730345058,715762707,RU_myo,-0.7944702670658468,-0.42997949077966435,-0.08782689669722313,-0.4197869322331485,112.875,-216.5,29.75,0.4833984375,0.41162109375,0.30810546875
1969/12/31/18:00:10.065,180,1730345058,733685431,RU_myo,-0.7848728353508068,-0.4626233353000867,-0.05737017614539334,-0.4082437321665277,103.625,-237.9375,58.5,0.521484375,0.6708984375,0.40087890625
1969/12/31/18:00:10.087,181,1730345058,754813112,RU_myo,-0.7758334128718566,-0.4913652302573409,-0.02392437837049778,-0.3950574010005922,76.875,-246.5,56.3125,0.63818359375,0.8486328125,0.3623046875
1969/12/31/18:00:10.115,182,1730345058,783492079,RU_myo,-0.7667400148474053,-0.5168766366108951,0.015379963682364573,-0.38040997473086663,50.375,-269.125,65.0,0.7197265625,0.7060546875,0.275390625
1969/12/31/18:00:10.126,183,1730345058,793802026,RU_myo,-0.7547794318319493,-0.5401308297657275,0.060543478319503005,-0.3672889642406946,39.9375,-287.0625,93.9375,0.84033203125,0.576171875,0.44580078125
1969/12/31/18:00:10.146,184,1730345058,814770894,RU_myo,-0.740857560087753,-0.5600831888067641,0.10595013792835813,-0.3552625304613898,31.5,-279.4375,105.5625,0.9189453125,0.6591796875,0.4130859375
1969/12/31/18:00:10.167,185,1730345058,835799548,RU_myo,-0.7254328261841628,-0.5794429792859197,0.15099451556281498,-0.33940198102053926,31.0,-291.25,95.9375,0.748046875,0.78955078125,0.3388671875
1969/12/31/18:00:10.185,186,1730345058,853714416,RU_myo,-0.7080884686935655,-0.5970109809309134,0.19652170911853825,-0.3218195565782771,28.9375,-297.875,93.375,1.0009765625,0.77783203125,0.38818359375
1969/12/31/18:00:10.208,187,1730345058,876286279,RU_myo,-0.6919309606570405,-0.6095364297505392,0.24040893128941365,-0.30315084075006793,9.625,-287.375,83.5625,1.16552734375,0.6162109375,0.55712890625
1969/12/31/18:00:10.228,188,1730345058,895895212,RU_myo,-0.6764977787318561,-0.6175392029239372,0.28179269617511543,-0.2856378206843275,-3.9375,-267.3125,87.375,1.06689453125,0.6689453125,0.62158203125
1969/12/31/18:00:10.246,189,1730345058,914458269,RU_myo,-0.6631773159178409,-0.6205157160810499,0.32084696758513614,-0.2687253563396147,-27.6875,-243.0,88.375,1.03369140625,0.77978515625,0.4365234375
1969/12/31/18:00:10.266,190,1730345058,934763052,RU_myo,-0.6558233671327759,-0.6163335841141714,0.3568118570738211,-0.25042748025554024,-72.4375,-216.6875,77.5,1.15576171875,0.91552734375,0.54931640625
1969/12/31/18:00:10.288,191,1730345058,955818093,RU_myo,-0.654966839234335,-0.6058336451626138,0.3886710308679755,-0.2300410042935615,-117.5625,-186.8125,58.125,1.18017578125,0.86083984375,0.54150390625
1969/12/31/18:00:10.305,192,1730345058,973738443,RU_myo,-0.6582395632650864,-0.5917747617448565,0.41630524441642597,-0.20787797426804674,-144.875,-161.6875,36.9375,1.0888671875,0.603515625,0.42529296875
1969/12/31/18:00:10.327,193,1730345058,994817113,RU_myo,-0.660124121934989,-0.5804771194271156,0.4377228367712409,-0.18889461514319444,-115.25,-133.5625,25.0625,1.02001953125,0.6943359375,0.384765625
1969/12/31/18:00:10.347,194,1730345059,15806563,RU_myo,-0.6636759713081725,-0.5688302420997027,0.4518904627152574,-0.1782172003144991,-81.5625,-90.25,25.0625,1.0322265625,0.62939453125,0.32763671875
1969/12/31/18:00:10.365,195,1730345059,33695948,RU_myo,-0.6630554611913999,-0.5624131144034196,0.4599397970856397,-0.1802895648342595,-6.9375,-46.375,30.25,1.0810546875,0.40380859375,0.40380859375
1969/12/31/18:00:10.388,196,1730345059,56133812,RU_myo,-0.6574460538410773,-0.563089239949664,0.462995336468475,-0.19060564669009328,63.9375,-23.375,29.5,1.04736328125,0.3154296875,0.4365234375
1969/12/31/18:00:10.408,197,1730345059,75813521,RU_myo,-0.6510214398659191,-0.5688732390541138,0.46066465061478934,-0.20085418192544668,86.8125,-4.125,19.0625,0.89697265625,0.54345703125,0.3056640625
1969/12/31/18:00:10.425,198,1730345059,93638403,RU_myo,-0.6445201513590361,-0.5770164309610157,0.4552533910025615,-0.21068973129653337,88.8125,19.625,14.5,0.837890625,0.7236328125,0.02197265625
1969/12/31/18:00:10.448,199,1730345059,116067667,RU_myo,-0.6398221793657567,-0.5845861713216844,0.4488459703382405,-0.2177702504986187,69.1875,27.5625,-0.875,0.826171875,0.68701171875,-0.119140625
1969/12/31/18:00:10.475,200,1730345059,143209138,RU_myo,-0.6370728608774565,-0.5897104791912229,0.4432288863472015,-0.22344546308415103,48.8125,27.625,-6.6875,0.83447265625,0.58056640625,-0.1162109375
1969/12/31/18:00:10.485,201,1730345059,153566224,RU_myo,-0.6348724880024532,-0.5938578454397107,0.4378557228349932,-0.22924255575247204,42.0,31.25,-4.75,0.91357421875,0.60693359375,-0.150390625
1969/12/31/18:00:10.508,202,1730345059,176150963,RU_myo,-0.6332204279318723,-0.597821117261946,0.43187159017310156,-0.23479508301242533,41.375,31.125,-10.875,0.93017578125,0.5732421875,-0.099609375
1969/12/31/18:00:10.528,203,1730345059,195863212,RU_myo,-0.6308412503702515,-0.6023996847092088,0.4261352176939915,-0.23992230603767983,44.4375,27.5,-13.125,0.84765625,0.501953125,-0.10595703125
1969/12/31/18:00:10.545,204,1730345059,213590794,RU_myo,-0.6266832893780565,-0.6080072973104985,0.4211863439811032,-0.24535126833850673,51.0,23.0,-8.875,0.80419921875,0.47998046875,-0.16650390625
1969/12/31/18:00:10.567,205,1730345059,235356809,RU_myo,-0.621066068934685,-0.6144745658445763,0.41679050557733527,-0.2509653769122862,59.25,17.0,-8.25,0.85400390625,0.48095703125,-0.17822265625
1969/12/31/18:00:10.588,206,1730345059,256422036,RU_myo,-0.6144466702331232,-0.6209774930914668,0.41333394763273174,-0.2568993776707277,60.5,14.125,-4.0625,0.87158203125,0.45849609375,-0.22216796875
1969/12/31/18:00:10.604,207,1730345059,272702121,RU_myo,-0.6066499087309263,-0.6272784468748954,0.41135013932056774,-0.2632274704583989,60.75,11.5,7.25,0.8291015625,0.46484375,-0.291015625
1969/12/31/18:00:10.627,208,1730345059,295441540,RU_myo,-0.5999001096641646,-0.6331024353999776,0.4097191409274125,-0.26726651543589147,49.3125,7.4375,10.4375,0.8310546875,0.6376953125,-0.345703125
1969/12/31/18:00:10.648,209,1730345059,316509945,RU_myo,-0.5966093510736842,-0.6372581314128222,0.4081967611233555,-0.26708567982592757,23.6875,0.5625,1.5,0.82373046875,0.751953125,-0.3173828125
1969/12/31/18:00:10.665,210,1730345059,332851738,RU_myo,-0.5972206575511351,-0.6375032977129899,0.40874672903627507,-0.26427853318307765,-11.625,-4.75,-0.375,0.7861328125,0.669921875,-0.25
1969/12/31/18:00:10.687,211,1730345059,355372049,RU_myo,-0.5995311270651675,-0.63413706710853,0.41258581074626205,-0.2611619355300674,-36.375,-9.6875,5.375,0.7890625,0.48046875,-0.2158203125
1969/12/31/18:00:10.708,212,1730345059,376547948,RU_myo,-0.6000186812954219,-0.6310236136622284,0.4177731536432879,-0.2593306252491352,-29.25,-14.0625,9.8125,0.79150390625,0.3544921875,-0.21728515625
1969/12/31/18:00:10.732,213,1730345059,400435987,RU_myo,-0.597490812140528,-0.6303253429813457,0.4223936578983243,-0.2593805874971649,-4.125,-17.0625,12.25,0.80810546875,0.3505859375,-0.21240234375
1969/12/31/18:00:10.747,214,1730345059,415585751,RU_myo,-0.5938642498243581,-0.6309121017918181,0.42608081480203946,-0.2602504790597187,9.1875,-16.875,13.8125,0.85302734375,0.4326171875,-0.19921875
1969/12/31/18:00:10.768,215,1730345059,436366231,RU_myo,-0.5908559187816719,-0.6311373882988606,0.4295469431242028,-0.26085303138858235,7.125,-16.125,19.0625,0.8271484375,0.5205078125,-0.18505859375
1969/12/31/18:00:10.785,216,1730345059,452873334,RU_myo,-0.5891044656972032,-0.630241681805773,0.4332835269358108,-0.26080018461708965,-1.375,-15.875,22.5625,0.77197265625,0.55517578125,-0.1552734375
1969/12/31/18:00:10.807,217,1730345059,475303300,RU_myo,-0.5888422181872286,-0.6283302898256135,0.436810090751036,-0.26012080575393537,-11.125,-13.8125,17.25,0.8330078125,0.5361328125,-0.14501953125
1969/12/31/18:00:10.828,218,1730345059,496420052,RU_myo,-0.5889718731874053,-0.626263252930152,0.4399894542806223,-0.25945279097613055,-13.8125,-11.8125,9.8125,0.8916015625,0.4609375,-0.14794921875
1969/12/31/18:00:10.845,219,1730345059,512935281,RU_myo,-0.58805124485268,-0.6249761024692728,0.4432203570441269,-0.2591453643637239,-7.8125,-12.5625,9.125,0.87109375,0.41796875,-0.17724609375
1969/12/31/18:00:10.867,220,1730345059,535382451,RU_myo,-0.5859891473273111,-0.62474585064497,0.4464039812052863,-0.2589069849976517,-0.25,-15.0,11.5,0.76025390625,0.4072265625,-0.18896484375
1969/12/31/18:00:10.888,221,1730345059,556440120,RU_myo,-0.5827417659139805,-0.6256478678659629,0.4493849625497108,-0.2589014003987333,8.0625,-17.5,8.625,0.83837890625,0.41455078125,-0.21533203125
1969/12/31/18:00:10.905,222,1730345059,572968500,RU_myo,-0.578244509059196,-0.6278048364136468,0.45220746966641157,-0.25884895112096795,15.75,-22.0,3.4375,0.9111328125,0.4013671875,-0.2578125
1969/12/31/18:00:10.927,223,1730345059,595483157,RU_myo,-0.5730948848302049,-0.6302823083750294,0.455485316878362,-0.2585335390991212,18.4375,-27.1875,5.6875,0.8974609375,0.4072265625,-0.2509765625
1969/12/31/18:00:10.948,224,1730345059,616505548,RU_myo,-0.5695121573636935,-0.6318893328888993,0.45842951601743676,-0.2573211076460542,10.5,-25.8125,7.1875,0.86962890625,0.48779296875,-0.22412109375
1969/12/31/18:00:10.965,225,1730345059,633026692,RU_myo,-0.5673714434339947,-0.6326167180715743,0.4612334335230957,-0.2552439088254051,1.125,-22.6875,7.375,0.8779296875,0.548828125,-0.24755859375
1969/12/31/18:00:10.987,226,1730345059,655479235,RU_myo,-0.5655245593590476,-0.6333923890598095,0.4634786859240888,-0.25334474917973304,0.125,-18.25,4.4375,0.87255859375,0.52978515625,-0.2705078125
1969/12/31/18:00:11.008,227,1730345059,676462475,RU_myo,-0.5644375347930725,-0.6335884568216787,0.46483091100605967,-0.2528006346359111,1.125,-10.0,2.5625,0.86962890625,0.4697265625,-0.236328125
1969/12/31/18:00:11.024,228,1730345059,692220934,RU_myo,-0.5645082519291555,-0.6335382911692761,0.4647778504098302,-0.25286600581062724,-0.625,-0.875,-0.8125,0.853515625,0.46728515625,-0.1982421875
1969/12/31/18:00:11.047,229,1730345059,715454630,RU_myo,-0.5649789017629253,-0.633762657006181,0.46360373099180957,-0.2534074106211155,2.75,6.0,-3.75,0.87158203125,0.49755859375,-0.22705078125
1969/12/31/18:00:11.068,230,1730345059,736261663,RU_myo,-0.5644380919769406,-0.6348097528819376,0.4617186597973135,-0.25542532600816353,11.875,12.6875,-2.75,0.84814453125,0.47509765625,-0.2734375
1969/12/31/18:00:11.084,231,1730345059,752219492,RU_myo,-0.5634547392819876,-0.6362668605951821,0.4592107298914293,-0.25847387574298286,17.125,18.5,-3.0,0.83642578125,0.45556640625,-0.29541015625
1969/12/31/18:00:11.107,232,1730345059,775449440,RU_myo,-0.562122282272851,-0.6379263946054115,0.4565946572945927,-0.2618964943792404,19.75,20.3125,-1.4375,0.81103515625,0.4443359375,-0.3134765625
1969/12/31/18:00:11.128,233,1730345059,796456280,RU_myo,-0.5606561673606015,-0.6392676569709275,0.45457948339884174,-0.26525274366962487,18.25,18.75,2.3125,0.81591796875,0.45703125,-0.318359375
1969/12/31/18:00:11.144,234,1730345059,812331426,RU_myo,-0.5595479475344605,-0.6395618392466854,0.4537782493366834,-0.2682387902938431,11.0625,15.6875,7.8125,0.80517578125,0.455078125,-0.30859375
1969/12/31/18:00:11.167,235,1730345059,835430477,RU_myo,-0.5592574344556867,-0.638541010506973,0.454156342877307,-0.27062615566697745,1.375,12.875,13.0625,0.78515625,0.44580078125,-0.28662109375
1969/12/31/18:00:11.189,236,1730345059,857096190,RU_myo,-0.5594415637858557,-0.636650114755647,0.45519476136972636,-0.2729459604244323,-3.875,11.1875,16.25,0.79296875,0.439453125,-0.25439453125
1969/12/31/18:00:11.204,237,1730345059,872120362,RU_myo,-0.5599825660108522,-0.6342603625051527,0.4564697123918434,-0.27526118503639707,-5.3125,9.375,17.75,0.82373046875,0.443359375,-0.20947265625
1969/12/31/18:00:11.227,238,1730345059,895478919,RU_myo,-0.5606517752719368,-0.6316334881656078,0.4578106865136945,-0.27770145629080256,-5.5625,8.0,18.0,0.88427734375,0.455078125,-0.181640625
1969/12/31/18:00:11.250,239,1730345059,917893272,RU_myo,-0.5613200133746358,-0.6293107163103043,0.45847949771341345,-0.28050742431986797,-1.9375,9.6875,15.25,0.92919921875,0.46142578125,-0.16796875
1969/12/31/18:00:11.264,240,1730345059,932160889,RU_myo,-0.5614956923737995,-0.6278986612110488,0.45798518212749906,-0.2841046139130474,6.5625,13.625,12.3125,0.931640625,0.46142578125,-0.16455078125
1969/12/31/18:00:11.287,241,1730345059,955409851,RU_myo,-0.5610708938223414,-0.6275962146388706,0.45640032024404104,-0.28813398126131556,15.4375,16.6875,11.0625,0.87353515625,0.47802734375,-0.166015625
1969/12/31/18:00:11.308,242,1730345059,976379595,RU_myo,-0.5605347325125126,-0.6275498823708248,0.45439689498646085,-0.29241309924514897,18.25,18.4375,12.5,0.8037109375,0.48388671875,-0.15234375
1969/12/31/18:00:11.324,243,1730345059,992297244,RU_myo,-0.56046570243467,-0.6273578302652698,0.4522542584167379,-0.2962540040964704,14.375,19.9375,8.3125,0.890625,0.4931640625,-0.18798828125
1969/12/31/18:00:11.355,244,1730345060,22930376,RU_myo,-0.5610683702084553,-0.6266779098553703,0.45084434360163816,-0.2986912437506995,2.8125,19.625,4.5,0.90625,0.46240234375,-0.2529296875
