time,.header.seq,.header.stamp.secs,.header.stamp.nsecs,.header.frame_id,.orientation.x,.orientation.y,.orientation.z,.orientation.w,.angular_velocity.x,.angular_velocity.y,.angular_velocity.z,.linear_acceleration.x,.linear_acceleration.y,.linear_acceleration.z
1969/12/31/18:00:16.784,1,1731184264,693039699,RL_myo,-0.579920702341644,-0.5477571357099825,-0.03295697529619951,-0.6021361449487117,-4.625,-3.5625,-5.4375,0.59423828125,0.67236328125,0.359375
1969/12/31/18:00:16.798,2,1731184264,707420963,RL_myo,-0.5813199160991158,-0.5474477320114508,-0.032468471954302316,-0.6010939478908337,-7.3125,-3.8125,-6.5625,0.58740234375,0.6513671875,0.37451171875
1969/12/31/18:00:16.822,3,1731184264,730665167,RL_myo,-0.5825530155490075,-0.5473984281256206,-0.032408135280934836,-0.5999472124512042,-5.75,-3.0,-7.0,0.57958984375,0.6513671875,0.35400390625
1969/12/31/18:00:16.859,4,1731184264,768078271,RL_myo,-0.5835749837716167,-0.5473227833574418,-0.03252933134807276,-0.5990157357998763,-4.0,-2.25,-5.75,0.5703125,0.65576171875,0.36328125
1969/12/31/18:00:16.862,5,1731184264,770428927,RL_myo,-0.5840299826044255,-0.5477150239201708,-0.0329581137638614,-0.5981897648140845,0.5,-2.25,-4.6875,0.58251953125,0.66015625,0.3642578125
1969/12/31/18:00:16.882,6,1731184264,790947554,RL_myo,-0.5843765228251319,-0.5481848488788861,-0.033750414320866624,-0.5973762303302759,2.75,-1.4375,-5.75,0.59375,0.6787109375,0.380859375
1969/12/31/18:00:16.904,7,1731184264,813110304,RL_myo,-0.5846173442772723,-0.5489141240661642,-0.035031877608847926,-0.596396355389655,5.625,-1.0625,-6.9375,0.59521484375,0.68310546875,0.380859375
1969/12/31/18:00:16.925,8,1731184264,834213225,RL_myo,-0.5839471066200581,-0.5505019755134746,-0.037778350647765045,-0.5954209837150175,17.1875,0.25,-9.6875,0.62255859375,0.693359375,0.40234375
1969/12/31/18:00:16.942,9,1731184264,850756802,RL_myo,-0.5821088715936528,-0.5536686604212222,-0.042721347254723936,-0.5939487878328191,35.6875,1.5,-16.3125,0.6953125,0.72607421875,0.4443359375
1969/12/31/18:00:16.964,10,1731184264,873275721,RL_myo,-0.5791193867900345,-0.558491043156877,-0.051082614263174085,-0.5916916908978169,59.625,4.125,-29.5,0.77734375,0.75634765625,0.49853515625
1969/12/31/18:00:16.985,11,1731184264,894242002,RL_myo,-0.5763059117819097,-0.5639168299126173,-0.06456969762419362,-0.587962634131835,80.8125,15.0,-55.4375,0.96875,0.931640625,0.591796875
1969/12/31/18:00:17.007,12,1731184264,916513302,RL_myo,-0.5785216231441445,-0.5636908652135582,-0.08318651464769163,-0.5836483048979274,59.0,48.5625,-88.4375,1.05712890625,1.25634765625,0.6337890625
1969/12/31/18:00:17.030,13,1731184264,939231130,RL_myo,-0.5892788575110057,-0.5543066373811449,-0.10455045913167818,-0.5784148868598448,5.625,80.1875,-123.375,0.70458984375,1.412109375,0.49072265625
1969/12/31/18:00:17.045,14,1731184264,954233033,RL_myo,-0.6063607019796188,-0.5392246403613419,-0.12670405810867524,-0.5705344581887747,-32.25,90.25,-156.8125,0.41015625,1.4423828125,0.2978515625
1969/12/31/18:00:17.062,15,1731184264,970724996,RL_myo,-0.6269230810600117,-0.5198725471640556,-0.14775903224749692,-0.5611303355983009,-62.5,93.6875,-173.9375,0.29833984375,1.3544921875,0.17431640625
1969/12/31/18:00:17.092,16,1731184265,634733,RL_myo,-0.6471350535706799,-0.49796990494041093,-0.1699774709227901,-0.5516791237598204,-66.875,105.625,-179.125,0.15478515625,1.18310546875,0.12744140625
1969/12/31/18:00:17.105,17,1731184265,14194330,RL_myo,-0.6631704411816096,-0.47928193213686554,-0.19652207073484107,-0.5402525994238551,-26.0625,110.375,-185.4375,0.19287109375,1.05029296875,0.15771484375
1969/12/31/18:00:17.122,18,1731184265,30719944,RL_myo,-0.6724324454106908,-0.46828590975097395,-0.2306337094941914,-0.5247389876239898,52.4375,111.0,-192.875,0.10986328125,0.859375,0.21826171875
1969/12/31/18:00:17.144,19,1731184265,53232076,RL_myo,-0.6743903250324867,-0.46438334689341104,-0.27292973154255934,-0.5050298587912967,130.25,118.125,-197.4375,-0.109375,0.80908203125,0.20556640625
1969/12/31/18:00:17.165,20,1731184265,74056443,RL_myo,-0.668462264240208,-0.47121310528609933,-0.32101812379288724,-0.477560231688088,221.5625,100.1875,-200.625,-0.33740234375,1.0947265625,0.208984375
1969/12/31/18:00:17.182,21,1731184265,90646911,RL_myo,-0.6610253421679897,-0.4806180933960778,-0.3671617079201021,-0.44412163373247726,241.5625,72.5625,-209.75,-0.42919921875,1.099609375,0.14794921875
1969/12/31/18:00:17.205,22,1731184265,113737934,RL_myo,-0.6544950196819722,-0.4880638448710119,-0.4053059889694123,-0.4112870139534512,211.5625,47.5625,-191.4375,-0.50732421875,1.19873046875,0.17529296875
1969/12/31/18:00:17.225,23,1731184265,134148540,RL_myo,-0.6492414052455777,-0.4881821771535417,-0.44173804203492123,-0.3808297018924991,173.75,62.5625,-198.0625,-0.5732421875,1.107421875,0.25732421875
1969/12/31/18:00:17.242,24,1731184265,150719382,RL_myo,-0.6414911082168034,-0.48067586036681037,-0.48018761673007415,-0.3561737329990738,142.9375,110.5,-199.6875,-0.400390625,0.99365234375,0.25390625
1969/12/31/18:00:17.264,25,1731184265,173143836,RL_myo,-0.6316734434259094,-0.4702457856615103,-0.5182773798621084,-0.33353578437899467,134.5,127.5625,-189.6875,-0.7158203125,0.7236328125,0.33203125
1969/12/31/18:00:17.285,26,1731184265,194007076,RL_myo,-0.6225055253813437,-0.46163056803769453,-0.5492085512653639,-0.31265645162045336,119.9375,101.625,-157.75,-0.81689453125,0.5234375,0.31201171875
1969/12/31/18:00:17.308,27,1731184265,216865497,RL_myo,-0.6109662480602351,-0.45698883882479685,-0.5744706116263104,-0.29642024441400083,115.4375,94.75,-110.0,-0.75,0.39404296875,0.28466796875
1969/12/31/18:00:17.324,28,1731184265,233222919,RL_myo,-0.5976294610122888,-0.45701076430351495,-0.5935402888423722,-0.2858148249510364,106.6875,85.875,-55.9375,-0.708984375,0.294921875,0.22314453125
1969/12/31/18:00:17.345,29,1731184265,254175554,RL_myo,-0.5875657903631605,-0.4589690187525674,-0.6059977908502981,-0.2772734377916109,94.9375,62.875,-6.75,-0.677734375,0.29248046875,0.14990234375
1969/12/31/18:00:17.361,30,1731184265,270115304,RL_myo,-0.577908295569617,-0.46780727484857054,-0.6103160793849582,-0.27329954034858434,85.125,32.875,45.125,-0.55517578125,0.3212890625,0.08447265625
1969/12/31/18:00:17.384,31,1731184265,293249261,RL_myo,-0.5681308766144457,-0.4817730304000897,-0.6078615889010506,-0.27500244172571625,72.0625,16.375,88.9375,-0.41064453125,0.4287109375,0.056640625
1969/12/31/18:00:17.414,32,1731184265,323154319,RL_myo,-0.5553651763995546,-0.4995845421985445,-0.602723789244176,-0.28055095779217065,67.375,16.0625,116.125,-0.3046875,0.435546875,-0.0107421875
1969/12/31/18:00:17.421,33,1731184265,330022207,RL_myo,-0.5420237018103398,-0.5184043827471034,-0.5959148096471295,-0.28697167502671067,66.5,13.25,127.9375,-0.24609375,0.396484375,-0.0078125
1969/12/31/18:00:17.444,34,1731184265,353202484,RL_myo,-0.532491627679466,-0.536092430663201,-0.5849168779002867,-0.2948386307529513,40.8125,-6.625,131.3125,-0.107421875,0.66357421875,-0.02099609375
1969/12/31/18:00:17.475,35,1731184265,383290927,RL_myo,-0.5242166134776547,-0.5541840552307725,-0.5729823689985123,-0.2996133840449187,51.5,-30.5625,98.0625,0.1708984375,0.8828125,-0.15478515625
1969/12/31/18:00:17.481,36,1731184265,390001833,RL_myo,-0.5129772865292596,-0.5712632244989732,-0.570347738562276,-0.2919179490148065,107.125,-27.75,52.625,0.29736328125,0.76416015625,-0.29541015625
1969/12/31/18:00:17.504,37,1731184265,413149745,RL_myo,-0.49649340941861503,-0.5887734383111713,-0.567778511102812,-0.29063326559944,106.0,11.125,82.625,0.25146484375,0.68798828125,-0.20361328125
1969/12/31/18:00:17.527,38,1731184265,435588573,RL_myo,-0.48195260011239704,-0.6034019700280194,-0.5604369668015883,-0.2992292767318074,50.8125,28.6875,115.1875,0.21630859375,0.7685546875,-0.28466796875
1969/12/31/18:00:17.541,39,1731184265,449956518,RL_myo,-0.47463022125696114,-0.6111543057306428,-0.5490257773470004,-0.3158912209368691,-33.0625,24.3125,94.5,0.29345703125,0.9794921875,-0.474609375
1969/12/31/18:00:17.578,40,1731184265,486660639,RL_myo,-0.46938439231760287,-0.6156741320634479,-0.5394472297094386,-0.33108962791873564,-44.125,24.4375,72.375,0.30419921875,0.9453125,-0.48681640625
1969/12/31/18:00:17.587,41,1731184265,495766345,RL_myo,-0.462864907688213,-0.619960671452646,-0.5306711988856819,-0.3461111407568375,-42.375,33.625,78.8125,0.228515625,0.71044921875,-0.4580078125
1969/12/31/18:00:17.608,42,1731184265,516645587,RL_myo,-0.45736729228662265,-0.6237381541458878,-0.5215110104869483,-0.36026676359326576,-51.0,30.5,81.3125,0.1513671875,0.66455078125,-0.5205078125
1969/12/31/18:00:17.624,43,1731184265,533173992,RL_myo,-0.44667619305555767,-0.6315350793467566,-0.5170434086031814,-0.36648319979486593,8.9375,21.875,66.0625,0.17333984375,0.7060546875,-0.57666015625
1969/12/31/18:00:17.647,44,1731184265,555665123,RL_myo,-0.4318050317134273,-0.6414517149552115,-0.5170674528164179,-0.3670495350847423,67.375,21.0625,49.875,0.21044921875,0.8974609375,-0.49951171875
1969/12/31/18:00:17.668,45,1731184265,576845570,RL_myo,-0.41642216959697764,-0.6498090047924697,-0.5195054239497983,-0.3666809900247166,78.75,28.875,37.3125,0.19921875,1.00927734375,-0.4921875
1969/12/31/18:00:17.684,46,1731184265,593154541,RL_myo,-0.4033634192359354,-0.6550612163200628,-0.5222546192165076,-0.3680256344367817,58.125,37.625,30.75,0.14990234375,1.12353515625,-0.56982421875
1969/12/31/18:00:17.707,47,1731184265,615680844,RL_myo,-0.3967047275433443,-0.6560275563636012,-0.5222465159366765,-0.37351275885619495,15.9375,38.3125,30.4375,0.08642578125,1.1796875,-0.4462890625
1969/12/31/18:00:17.728,48,1731184265,636885945,RL_myo,-0.39706840663750803,-0.6530328851861875,-0.5182761926169257,-0.38376362449072404,-38.375,35.875,32.625,0.04443359375,1.13232421875,-0.34716796875
1969/12/31/18:00:17.744,49,1731184265,653204317,RL_myo,-0.39865698182904113,-0.6480312053063011,-0.5159592964456083,-0.3935913771915931,-50.9375,39.25,16.625,0.052734375,1.03564453125,-0.40771484375
1969/12/31/18:00:17.767,50,1731184265,675769324,RL_myo,-0.3962156092531666,-0.646444197968198,-0.5179121472770135,-0.39609354652696416,-11.4375,30.875,11.125,-0.0869140625,0.8603515625,-0.5595703125
1969/12/31/18:00:17.788,51,1731184265,696548726,RL_myo,-0.3911064939432113,-0.6501352018544143,-0.5210480865782139,-0.3909844257490967,38.125,4.3125,19.3125,-0.19140625,1.0556640625,-0.62158203125
1969/12/31/18:00:17.804,52,1731184265,713077544,RL_myo,-0.3875476313091128,-0.652788892044452,-0.5251117826430877,-0.38461813740315415,56.75,-8.375,-7.4375,0.03369140625,1.23291015625,-0.4033203125
1969/12/31/18:00:17.827,53,1731184265,735817139,RL_myo,-0.3831621706955063,-0.6552451520527167,-0.5269547916191464,-0.382307715392904,27.6875,3.3125,3.8125,0.13671875,1.0888671875,-0.57763671875
1969/12/31/18:00:17.848,54,1731184265,756614352,RL_myo,-0.38065229831452413,-0.6571241455751934,-0.524747227979522,-0.384619333650494,-0.6875,8.5,27.0,0.0869140625,1.0810546875,-0.533203125
1969/12/31/18:00:17.864,55,1731184265,773162070,RL_myo,-0.3795436549060512,-0.6589986148376814,-0.5221700452446011,-0.386012802264154,-3.3125,2.25,27.875,0.0185546875,1.02685546875,-0.4970703125
1969/12/31/18:00:17.887,56,1731184265,795740578,RL_myo,-0.3775441339929811,-0.6617702950025693,-0.5200539226890061,-0.38608861811180056,1.9375,1.0625,30.75,-0.03759765625,0.91650390625,-0.53173828125
1969/12/31/18:00:17.908,57,1731184265,816763606,RL_myo,-0.3733909170039884,-0.6652437063327025,-0.5192562801356544,-0.3852310343460567,28.0,2.625,27.9375,0.01025390625,0.9091796875,-0.36279296875
1969/12/31/18:00:17.924,58,1731184265,833265948,RL_myo,-0.3663065266956884,-0.6698734483525285,-0.5197988483617425,-0.383273073583626,45.5,6.8125,28.6875,0.03759765625,0.85986328125,-0.39599609375
1969/12/31/18:00:17.947,59,1731184265,855809808,RL_myo,-0.3574081786443,-0.6756332885232925,-0.5215254246098947,-0.3791968944530458,58.3125,7.375,31.125,-0.01025390625,0.89501953125,-0.52978515625
1969/12/31/18:00:17.969,60,1731184265,878279328,RL_myo,-0.34782311825576995,-0.6816698381819081,-0.5231079042937715,-0.37510455953675415,65.4375,7.8125,33.5,-0.001953125,0.869140625,-0.47265625
1969/12/31/18:00:17.984,61,1731184265,893188535,RL_myo,-0.33976589501938836,-0.6872218390368803,-0.5238388138946308,-0.37131950876557546,54.8125,2.8125,30.5625,0.05712890625,0.9345703125,-0.54638671875
1969/12/31/18:00:17.990,62,1731184265,898505046,RL_myo,-0.33164688169660217,-0.6931383208370098,-0.5235309074702711,-0.3680828751402664,49.8125,0.6875,32.9375,0.115234375,0.865234375,-0.564453125
1969/12/31/18:00:18.012,63,1731184265,920997866,RL_myo,-0.3226127821456089,-0.6986281720054456,-0.5215756406009031,-0.36850850900400806,37.9375,11.625,39.9375,0.24853515625,0.84423828125,-0.5771484375
1969/12/31/18:00:18.035,64,1731184265,943641293,RL_myo,-0.31260405887778386,-0.7036337748539574,-0.5210271086762281,-0.3683869776232533,38.125,18.5,35.5,0.23095703125,0.78759765625,-0.6904296875
1969/12/31/18:00:18.050,65,1731184265,958476767,RL_myo,-0.30509639554372836,-0.7082703881346204,-0.5199272241722388,-0.3673485106576717,29.5625,10.1875,34.4375,0.16259765625,0.818359375,-0.71240234375
1969/12/31/18:00:18.072,66,1731184265,980990598,RL_myo,-0.2986157167755657,-0.7134309685482042,-0.5172832240731035,-0.3664191219130383,23.4375,2.375,37.9375,0.21337890625,0.78369140625,-0.7001953125
1969/12/31/18:00:18.094,67,1731184266,3446362,RL_myo,-0.29461220931498605,-0.717091122279215,-0.5125654306665118,-0.36913499936545174,4.125,3.9375,38.4375,0.31982421875,0.83740234375,-0.58740234375
1969/12/31/18:00:18.110,68,1731184266,18642016,RL_myo,-0.2911211109057679,-0.7199296906172826,-0.5091262698482004,-0.3711336426452777,1.6875,8.5625,34.0,0.23388671875,0.83056640625,-0.65380859375
1969/12/31/18:00:18.132,69,1731184266,41019126,RL_myo,-0.2878210791701231,-0.7217498053998889,-0.5077149189177808,-0.37210456312558116,7.6875,12.625,25.9375,0.12646484375,0.7841796875,-0.60693359375
1969/12/31/18:00:18.155,70,1731184266,63568696,RL_myo,-0.2842230441995524,-0.7229774922885759,-0.5079029791343516,-0.37223026552997,10.75,13.9375,15.9375,0.15234375,0.76220703125,-0.6533203125
1969/12/31/18:00:18.170,71,1731184266,78659926,RL_myo,-0.2808713647229387,-0.7248214531615863,-0.5083393300255012,-0.37058907574917077,15.25,7.1875,15.125,0.13623046875,0.828125,-0.7314453125
1969/12/31/18:00:18.200,72,1731184266,108633245,RL_myo,-0.27927939479967634,-0.726150839013669,-0.5099778459235348,-0.3669203936922321,18.25,-2.1875,4.0625,0.1279296875,0.94287109375,-0.7802734375
1969/12/31/18:00:18.215,73,1731184266,123614136,RL_myo,-0.2786043770006845,-0.7264464182780171,-0.5127174964255752,-0.36300960227821943,13.875,-6.125,-12.3125,0.24267578125,0.9580078125,-0.8359375
1969/12/31/18:00:18.229,74,1731184266,138536683,RL_myo,-0.27641864263907556,-0.725926989522889,-0.5168888241356439,-0.35978977663001777,20.375,-4.0,-28.3125,0.4453125,0.9345703125,-0.822265625
1969/12/31/18:00:18.252,75,1731184266,160931512,RL_myo,-0.27604421267196444,-0.7243185310614357,-0.5224882831493892,-0.35520170633447556,20.875,-4.5,-34.3125,0.302734375,1.06494140625,-0.87646484375
1969/12/31/18:00:18.275,76,1731184266,183594944,RL_myo,-0.28062433939038,-0.7216403194762621,-0.5301224471389389,-0.34562323487771246,17.3125,-20.375,-45.4375,-0.05908203125,1.076171875,-0.91259765625
1969/12/31/18:00:18.290,77,1731184266,198663872,RL_myo,-0.29167067088865,-0.7176111630694175,-0.5370182534315194,-0.334026696332618,-6.625,-49.8125,-65.9375,-0.05859375,1.021484375,-0.8544921875
1969/12/31/18:00:18.312,78,1731184266,221081408,RL_myo,-0.30398699342037977,-0.7139208691089345,-0.5426115957640226,-0.3216854933384505,-10.9375,-65.875,-70.875,0.01025390625,0.9111328125,-0.7607421875
1969/12/31/18:00:18.335,79,1731184266,243611638,RL_myo,-0.31730007533427285,-0.7113771260042863,-0.5463493507198327,-0.30784027312676904,-14.9375,-79.1875,-63.125,-0.0615234375,0.84375,-0.7529296875
1969/12/31/18:00:18.350,80,1731184266,258636536,RL_myo,-0.33108558676165073,-0.7091639664830197,-0.550975240052384,-0.2896464875153538,0.875,-92.4375,-67.25,-0.2451171875,0.77001953125,-0.67236328125
1969/12/31/18:00:18.372,81,1731184266,281124591,RL_myo,-0.3439086214614498,-0.7077743182055782,-0.5539766738253026,-0.27183123336101106,5.875,-102.0,-68.25,-0.25341796875,0.70654296875,-0.607421875
1969/12/31/18:00:18.395,82,1731184266,303669912,RL_myo,-0.3539879040936929,-0.7086471645572187,-0.5552727502490375,-0.25334548101602056,20.0625,-104.3125,-52.5625,-0.17724609375,0.64306640625,-0.6015625
1969/12/31/18:00:18.410,83,1731184266,318694961,RL_myo,-0.3619133511034747,-0.7123528893895037,-0.5542217776341744,-0.23326017334190224,36.4375,-112.125,-33.5625,-0.26611328125,0.640625,-0.62109375
1969/12/31/18:00:18.432,84,1731184266,341027326,RL_myo,-0.3716673223155695,-0.7156884546460892,-0.5520693920634879,-0.21183206498478518,33.875,-124.6875,-34.9375,-0.32763671875,0.748046875,-0.486328125
1969/12/31/18:00:18.455,85,1731184266,363764558,RL_myo,-0.38271817107233685,-0.718260270347685,-0.5482921462149377,-0.192366078013077,18.3125,-124.8125,-29.8125,-0.24169921875,0.6806640625,-0.48486328125
1969/12/31/18:00:18.470,86,1731184266,378556574,RL_myo,-0.3917553051664251,-0.7227241507681579,-0.5410971390567884,-0.1772328098151267,11.4375,-113.0,-1.5,0.01904296875,0.513671875,-0.47998046875
1969/12/31/18:00:18.492,87,1731184266,401085966,RL_myo,-0.3985318751863603,-0.7273054144863484,-0.5345697848020413,-0.16258635765642632,22.8125,-101.3125,0.8125,-0.08251953125,0.60498046875,-0.36474609375
1969/12/31/18:00:18.515,88,1731184266,423765305,RL_myo,-0.40683380639155414,-0.7303600601691761,-0.5285909986734548,-0.1471461606975753,15.6875,-104.75,-7.5625,-0.30908203125,0.74853515625,-0.494140625
1969/12/31/18:00:18.530,89,1731184266,438539659,RL_myo,-0.4134306562138745,-0.7348250813131162,-0.5205417872524558,-0.13469758757957204,12.125,-99.3125,7.5625,-0.07275390625,0.53369140625,-0.4775390625
1969/12/31/18:00:18.552,90,1731184266,461219414,RL_myo,-0.4187923747280022,-0.7401798193968537,-0.5102163003098366,-0.12816438165677713,6.1875,-84.375,23.375,0.12451171875,0.60546875,-0.41748046875
1969/12/31/18:00:18.575,91,1731184266,483600172,RL_myo,-0.42319470874418735,-0.744222134183245,-0.5019868011855987,-0.12267397816207334,1.875,-67.0,19.625,-0.02734375,0.69970703125,-0.5478515625
1969/12/31/18:00:18.590,92,1731184266,498556645,RL_myo,-0.42538475528846675,-0.7487259939568021,-0.49465472619985984,-0.11736225027542634,5.6875,-58.25,22.125,-0.0458984375,0.587890625,-0.59912109375
1969/12/31/18:00:18.612,93,1731184266,521095540,RL_myo,-0.4264260672770144,-0.7533099969085714,-0.4869691700019032,-0.11638679122617238,2.9375,-41.0625,28.375,0.06787109375,0.6513671875,-0.54833984375
1969/12/31/18:00:18.635,94,1731184266,543622995,RL_myo,-0.42918122435577666,-0.7561328482001873,-0.48002137792351873,-0.11681639127089825,-9.4375,-30.75,28.8125,-0.09716796875,0.80517578125,-0.61962890625
1969/12/31/18:00:18.650,95,1731184266,558492128,RL_myo,-0.4333867773525133,-0.7581979911350898,-0.47256918983812285,-0.11827961899861579,-23.125,-30.0,32.5625,-0.1240234375,0.79150390625,-0.626953125
1969/12/31/18:00:18.672,96,1731184266,581080833,RL_myo,-0.43729702372883944,-0.7602803942205377,-0.4646395312836922,-0.1218816687210736,-26.625,-24.5625,35.5625,-0.015625,0.7587890625,-0.5732421875
1969/12/31/18:00:18.695,97,1731184266,603625771,RL_myo,-0.44021989024495434,-0.7616725676219368,-0.4584682955108966,-0.12596892464516646,-24.0,-15.125,26.6875,0.01220703125,0.76220703125,-0.5537109375
1969/12/31/18:00:18.710,98,1731184266,618676307,RL_myo,-0.4437563931456195,-0.7622161455089591,-0.4529110429835844,-0.13030118269370067,-24.1875,-9.875,25.4375,-0.0751953125,0.9072265625,-0.55908203125
1969/12/31/18:00:18.732,99,1731184266,641078062,RL_myo,-0.4495543221353215,-0.761361684582967,-0.447052051268155,-0.1355498438043102,-44.6875,-12.6875,23.125,-0.056640625,0.89697265625,-0.6103515625
1969/12/31/18:00:18.755,100,1731184266,663452559,RL_myo,-0.45798206793081847,-0.758990537951447,-0.44064905789718944,-0.1414715396406766,-63.75,-15.5,23.3125,-0.1025390625,0.98583984375,-0.66064453125
1969/12/31/18:00:18.770,101,1731184266,678717199,RL_myo,-0.4672029618494591,-0.7555199823297785,-0.4350999235825988,-0.1469660002787064,-72.9375,-14.875,18.5625,-0.1337890625,0.89599609375,-0.65185546875
1969/12/31/18:00:18.792,102,1731184266,701027150,RL_myo,-0.47483043051767915,-0.7530761802259182,-0.429300417514313,-0.15203118283027492,-61.625,-11.4375,26.375,-0.18017578125,0.8291015625,-0.5673828125
1969/12/31/18:00:18.826,103,1731184266,735355317,RL_myo,-0.48000399079085526,-0.7521995151299797,-0.4234898527778442,-0.1563598505284388,-43.3125,-9.375,30.75,-0.18115234375,0.86083984375,-0.54443359375
1969/12/31/18:00:18.831,104,1731184266,740037873,RL_myo,-0.48173418013280983,-0.7527211001619085,-0.41978559368471635,-0.15850293498098406,-13.5625,-6.8125,18.875,-0.13671875,0.93603515625,-0.5087890625
1969/12/31/18:00:18.852,105,1731184266,761026745,RL_myo,-0.48178698560621275,-0.7537457907571228,-0.41758127128422945,-0.15929364484826644,5.375,-3.625,11.5,-0.14697265625,0.9873046875,-0.44775390625
1969/12/31/18:00:18.875,106,1731184266,783564301,RL_myo,-0.4813593847371496,-0.7555151291569894,-0.41446831263471323,-0.16033106424552962,3.8125,-5.875,18.625,-0.13818359375,0.95849609375,-0.501953125
1969/12/31/18:00:18.891,107,1731184266,800039125,RL_myo,-0.48124091217777637,-0.7574127736368046,-0.4106263610820646,-0.16161394235215623,1.25,-8.375,20.875,-0.107421875,0.9931640625,-0.5263671875
1969/12/31/18:00:18.912,108,1731184266,821138758,RL_myo,-0.482037537409241,-0.7582112341396556,-0.40806570968829897,-0.16198121350773936,-2.0,-8.125,12.1875,-0.150390625,0.97021484375,-0.4970703125
1969/12/31/18:00:18.935,109,1731184266,843626247,RL_myo,-0.48361219966934393,-0.7588634642464188,-0.40524798155028313,-0.16130578542731902,-6.125,-15.1875,10.5,-0.16064453125,0.951171875,-0.53076171875
1969/12/31/18:00:18.957,110,1731184266,866088484,RL_myo,-0.4859341773616489,-0.7593560706774223,-0.4011611840992362,-0.16222218581101017,-12.9375,-17.25,11.1875,-0.03076171875,0.99609375,-0.51806640625
1969/12/31/18:00:18.975,111,1731184266,884016274,RL_myo,-0.4881310948435929,-0.7588674710284113,-0.39884179854999746,-0.16362583961936392,-15.625,-6.9375,7.125,-0.0947265625,0.9296875,-0.490234375
1969/12/31/18:00:18.995,112,1731184266,903647399,RL_myo,-0.4903796642899156,-0.7584253998918209,-0.3972471978672135,-0.16282924011518293,-6.9375,-9.75,5.9375,-0.2314453125,0.984375,-0.4619140625
1969/12/31/18:00:19.011,113,1731184266,920056903,RL_myo,-0.49271522580750715,-0.7582675542465588,-0.39512428736254196,-0.16167504436567404,-8.0,-16.5625,1.875,-0.1484375,1.0537109375,-0.5234375
1969/12/31/18:00:19.032,114,1731184266,940972234,RL_myo,-0.4936401911785872,-0.7583431473039004,-0.39354499909984303,-0.16234951885942656,-7.1875,-8.0625,0.0,-0.02734375,0.9560546875,-0.51123046875
1969/12/31/18:00:19.052,115,1731184266,960628160,RL_myo,-0.4919738271215797,-0.759230171119272,-0.3934692052416356,-0.1634419934290523,7.8125,5.875,3.8125,-0.0849609375,0.86962890625,-0.45068359375
1969/12/31/18:00:19.071,116,1731184266,979966940,RL_myo,-0.48880119574658526,-0.7607575109228599,-0.39444651368587597,-0.1635033591465978,19.9375,9.3125,3.1875,-0.158203125,0.91650390625,-0.4716796875
1969/12/31/18:00:19.092,117,1731184267,1010650,RL_myo,-0.48537096051214557,-0.7626298909291803,-0.39559594694325756,-0.16221752961665822,24.1875,3.0625,-2.5,-0.130859375,0.96240234375,-0.52880859375
1969/12/31/18:00:19.115,118,1731184267,23524844,RL_myo,-0.48354079950475903,-0.76342444288843,-0.396328909754374,-0.16215674672272432,13.8125,3.875,-3.125,-0.0947265625,0.94482421875,-0.47607421875
1969/12/31/18:00:19.131,119,1731184267,39929452,RL_myo,-0.4823505662009389,-0.7638997452323106,-0.39665903198024827,-0.16265522699297763,7.4375,5.625,2.1875,-0.1318359375,0.826171875,-0.42919921875
1969/12/31/18:00:19.152,120,1731184267,61028044,RL_myo,-0.48057279439003425,-0.7649249215253111,-0.39659156946233715,-0.1632629190999926,9.625,4.5,3.75,-0.0869140625,0.80859375,-0.44775390625
1969/12/31/18:00:19.170,121,1731184267,78986077,RL_myo,-0.4782546713575617,-0.7659032504933693,-0.39720283323060385,-0.16399569958368662,11.0625,6.8125,-0.0625,-0.0634765625,0.83349609375,-0.48193359375
1969/12/31/18:00:19.191,122,1731184267,100001094,RL_myo,-0.475863580922023,-0.7671064959098252,-0.3978041324162814,-0.1638699133994654,17.0,6.25,2.9375,-0.14892578125,0.8876953125,-0.47119140625
1969/12/31/18:00:19.214,123,1731184267,122621565,RL_myo,-0.47501095264140236,-0.7674756173025356,-0.3981108112655618,-0.16387053936042212,8.3125,3.4375,0.8125,-0.1513671875,0.9560546875,-0.4931640625
1969/12/31/18:00:19.236,124,1731184267,145033593,RL_myo,-0.4742713317237605,-0.7678911202867527,-0.39773854958740795,-0.16496659498768815,-2.875,2.875,3.875,-0.08154296875,0.865234375,-0.5751953125
1969/12/31/18:00:19.251,125,1731184267,159977742,RL_myo,-0.47421454798544244,-0.7682031551470738,-0.3969487027152275,-0.16557838721808305,-6.1875,0.25,7.1875,-0.15380859375,0.947265625,-0.630859375
1969/12/31/18:00:19.272,126,1731184267,181185272,RL_myo,-0.4759963701744714,-0.7673679141176598,-0.3965314036445109,-0.16533839810265968,-9.0,-5.8125,-3.5625,-0.130859375,1.0205078125,-0.56591796875
1969/12/31/18:00:19.290,127,1731184267,199178788,RL_myo,-0.4784927325875889,-0.7657714688490406,-0.39628231029224675,-0.1661297472070685,-9.25,-2.1875,-6.375,-0.091796875,1.052734375,-0.45556640625
1969/12/31/18:00:19.313,128,1731184267,221373761,RL_myo,-0.47856633964677225,-0.7651812524106087,-0.3973302985716729,-0.1661341125517809,0.75,3.3125,-6.0625,-0.1357421875,0.9404296875,-0.50244140625
1969/12/31/18:00:19.340,129,1731184267,248696667,RL_myo,-0.4766453710676209,-0.7661113115252042,-0.398282674979167,-0.1650865209651619,14.0,0.9375,-4.0625,-0.119140625,0.8876953125,-0.51220703125
1969/12/31/18:00:19.350,130,1731184267,259183703,RL_myo,-0.4739660729304801,-0.7674637351404567,-0.39975248231968125,-0.16295253859443495,22.375,-1.3125,-8.0,-0.10888671875,0.8779296875,-0.49853515625
1969/12/31/18:00:19.373,131,1731184267,281715541,RL_myo,-0.47293838597426296,-0.7680900229043877,-0.40031008821850445,-0.16161322055230976,8.3125,-3.0625,-4.1875,-0.123046875,0.88134765625,-0.5380859375
1969/12/31/18:00:19.392,132,1731184267,301046359,RL_myo,-0.47269399753163854,-0.7686388902406011,-0.3992723217368598,-0.16228448540175944,-0.25,-2.75,2.625,-0.04638671875,0.86328125,-0.50830078125
1969/12/31/18:00:19.418,133,1731184267,326646231,RL_myo,-0.47367289739123647,-0.7684596638388169,-0.3979316184758229,-0.16356698428147323,-11.0625,-0.75,7.8125,-0.12451171875,0.86865234375,-0.541015625
1969/12/31/18:00:19.433,134,1731184267,341637298,RL_myo,-0.4760566530594376,-0.7680380669358926,-0.39592044979443225,-0.1635071504546453,-15.3125,-10.1875,6.625,-0.154296875,0.9345703125,-0.5625
1969/12/31/18:00:19.453,135,1731184267,361364994,RL_myo,-0.4806986257864646,-0.7662126140329198,-0.3936650757139026,-0.16393556486318486,-28.1875,-14.6875,-0.25,-0.0908203125,0.916015625,-0.509765625
1969/12/31/18:00:19.470,136,1731184267,379133081,RL_myo,-0.4869720196252988,-0.7631405105144424,-0.39078604357197494,-0.16661657019389217,-45.875,-12.625,-1.5,0.00732421875,0.94140625,-0.52685546875
1969/12/31/18:00:19.493,137,1731184267,401548046,RL_myo,-0.4945339162313631,-0.758309750607761,-0.3882790046975111,-0.17216835464502966,-71.8125,-2.9375,-4.0625,0.078125,0.8828125,-0.611328125
1969/12/31/18:00:19.531,138,1731184267,439648456,RL_myo,-0.5075879767267534,-0.7490843845550283,-0.38644307666632227,-0.17857429600847424,-102.0,0.6875,-10.625,0.07275390625,1.0400390625,-0.68994140625
1969/12/31/18:00:19.535,139,1731184267,443631225,RL_myo,-0.5248509855062001,-0.7356457882897368,-0.38515518250344527,-0.18711547925139646,-136.4375,6.125,-21.25,0.09716796875,1.09619140625,-0.64697265625
1969/12/31/18:00:19.553,140,1731184267,461577148,RL_myo,-0.5445915857560788,-0.7190830509221249,-0.38358826812472885,-0.19798891675363886,-163.625,12.875,-23.0625,0.15234375,0.99658203125,-0.63623046875
1969/12/31/18:00:19.572,141,1731184267,481054276,RL_myo,-0.5655623785340491,-0.698851278363375,-0.383205587009312,-0.21189517408764633,-185.4375,30.0625,-29.9375,0.2705078125,0.9658203125,-0.56982421875
1969/12/31/18:00:19.590,142,1731184267,498811017,RL_myo,-0.5841901088497186,-0.6769574474886207,-0.38620507822827194,-0.2264865747953725,-179.625,50.8125,-44.3125,0.39599609375,0.9072265625,-0.5234375
1969/12/31/18:00:19.612,143,1731184267,521325651,RL_myo,-0.597942711647303,-0.6545815639907445,-0.3947630355144182,-0.2411423551820449,-155.1875,81.4375,-61.3125,0.45556640625,0.88916015625,-0.48095703125
1969/12/31/18:00:19.632,144,1731184267,541128335,RL_myo,-0.6048344081392704,-0.6340690884115924,-0.40898036013534317,-0.25468960496116805,-112.1875,109.8125,-72.9375,0.4619140625,0.79833984375,-0.39697265625
1969/12/31/18:00:19.650,145,1731184267,558937031,RL_myo,-0.6058578111779236,-0.6154397267974394,-0.42752432429750725,-0.26719507377223223,-73.4375,132.4375,-79.9375,0.50634765625,0.69873046875,-0.23291015625
1969/12/31/18:00:19.673,146,1731184267,581661986,RL_myo,-0.6023159087477021,-0.5987150739502439,-0.449310945404862,-0.2772642794042771,-37.5,144.125,-88.9375,0.53369140625,0.6669921875,-0.09619140625
1969/12/31/18:00:19.692,147,1731184267,601042568,RL_myo,-0.5970127021433667,-0.5817547614833951,-0.4726299698832786,-0.28593380796786677,-25.125,149.375,-95.8125,0.47705078125,0.650390625,-0.03076171875
1969/12/31/18:00:19.709,148,1731184267,618116930,RL_myo,-0.5902904231781241,-0.5641692175205313,-0.49715733945502466,-0.2934363476675373,-17.4375,155.1875,-100.4375,0.30224609375,0.5986328125,-0.03564453125
1969/12/31/18:00:19.733,149,1731184267,641473278,RL_myo,-0.5856000897229617,-0.5442815633297939,-0.5201129718206441,-0.300520567149126,-30.5,147.5625,-103.6875,0.0810546875,0.6826171875,0.09912109375
1969/12/31/18:00:19.752,150,1731184267,661219084,RL_myo,-0.5844375020692603,-0.5216361038205898,-0.540311738285209,-0.3072324963885397,-53.9375,132.1875,-107.9375,-0.11767578125,0.6533203125,0.14208984375
1969/12/31/18:00:19.770,151,1731184267,679073510,RL_myo,-0.5862040514402572,-0.4966713764311102,-0.5578856048115972,-0.3137610649093558,-74.5,118.0625,-110.25,-0.28369140625,0.62353515625,0.138671875
1969/12/31/18:00:19.793,152,1731184267,701527386,RL_myo,-0.5896752803738405,-0.47231390962669756,-0.5719154473590623,-0.3195549335580034,-82.8125,97.5,-102.625,-0.3916015625,0.63720703125,0.07421875
1969/12/31/18:00:19.812,153,1731184267,721118059,RL_myo,-0.596526615595191,-0.44742547768859686,-0.5804752036961185,-0.3271314364221633,-110.9375,73.1875,-89.4375,-0.45703125,0.68798828125,0.00048828125
1969/12/31/18:00:19.829,154,1731184267,738111457,RL_myo,-0.6081625836362724,-0.42073987472036745,-0.5816756231447378,-0.33877676886753116,-157.9375,45.4375,-69.9375,-0.568359375,0.6767578125,-0.03759765625
1969/12/31/18:00:19.852,155,1731184267,760689945,RL_myo,-0.6242352899802971,-0.39371742820325545,-0.5746162744587894,-0.35374146858875655,-197.3125,9.6875,-44.25,-0.76513671875,0.53271484375,-0.0380859375
1969/12/31/18:00:19.873,156,1731184267,781697182,RL_myo,-0.6433226053281288,-0.3708213784246002,-0.5583071049750234,-0.3700279817953178,-212.4375,-38.9375,-7.625,-0.9345703125,0.39404296875,0.01025390625
1969/12/31/18:00:19.889,157,1731184267,798194804,RL_myo,-0.6640521732559691,-0.35515805111916215,-0.532218285918387,-0.3868348046044423,-210.6875,-95.3125,34.9375,-0.9462890625,0.39453125,0.12548828125
1969/12/31/18:00:19.912,158,1731184267,820765878,RL_myo,-0.6802682502547333,-0.3473359601829972,-0.5028467713842407,-0.4046454781256847,-179.3125,-110.4375,84.9375,-1.27783203125,0.32666015625,0.3134765625
1969/12/31/18:00:19.933,159,1731184267,841932584,RL_myo,-0.6961310384439356,-0.3486148072586148,-0.46713895916621806,-0.41910677196164353,-146.1875,-159.875,102.3125,-0.6767578125,0.42333984375,0.49462890625
1969/12/31/18:00:19.949,160,1731184267,858298491,RL_myo,-0.7122481662005234,-0.34709128716215737,-0.43302491338412286,-0.4297901959198017,-146.625,-155.4375,72.9375,-0.533203125,0.57373046875,0.42529296875
1969/12/31/18:00:19.972,161,1731184267,880754756,RL_myo,-0.732008818003886,-0.3434228463321549,-0.39639797173046853,-0.43484765951956705,-157.875,-182.6875,41.375,-0.64599609375,0.77294921875,0.373046875
1969/12/31/18:00:19.993,162,1731184267,901724518,RL_myo,-0.7476498463189085,-0.34501751683598286,-0.35606442476934796,-0.4418152846940881,-141.5625,-199.125,80.0,-0.681640625,0.83154296875,0.43896484375
1969/12/31/18:00:20.009,163,1731184267,918235820,RL_myo,-0.7586292263517873,-0.34831029724775947,-0.31449850389306194,-0.45194283355872766,-132.75,-193.375,111.75,-0.66455078125,0.81396484375,0.65478515625
1969/12/31/18:00:20.040,164,1731184267,948826819,RL_myo,-0.769851052242667,-0.34934417496726067,-0.26823334189048054,-0.46188621875475694,-155.0,-210.25,116.25,-0.67431640625,0.8974609375,0.75537109375
1969/12/31/18:00:20.053,165,1731184267,961725105,RL_myo,-0.7787111499340622,-0.3493489005582391,-0.22185242025317942,-0.47153557052986633,-157.0,-205.375,119.75,-0.5888671875,0.802734375,0.6201171875
1969/12/31/18:00:20.070,166,1731184267,978349286,RL_myo,-0.7827797186677056,-0.3471426040684476,-0.18016261730134622,-0.4840344572550735,-147.625,-168.1875,133.875,-0.6005859375,0.8056640625,0.69677734375
1969/12/31/18:00:20.092,167,1731184268,847003,RL_myo,-0.782067040983215,-0.3539869547138011,-0.14580600600194324,-0.4917367058843268,-68.25,-166.5625,121.125,-0.5986328125,0.76318359375,1.0146484375
1969/12/31/18:00:20.113,168,1731184268,21747358,RL_myo,-0.7788809996804875,-0.36576036914944066,-0.12047571645269411,-0.4950245877141854,-11.6875,-143.9375,90.625,-0.32421875,0.64501953125,0.9462890625
1969/12/31/18:00:20.130,169,1731184268,38252252,RL_myo,-0.7716644777278228,-0.379302019066626,-0.10198128300246694,-0.500263660545315,22.4375,-111.4375,97.1875,-0.2587890625,0.5478515625,0.80419921875
1969/12/31/18:00:20.152,170,1731184268,60735628,RL_myo,-0.7586649862772493,-0.39376610823431846,-0.08178031386143625,-0.5125306535883146,23.875,-101.5625,150.4375,-0.27392578125,0.68017578125,0.39404296875
1969/12/31/18:00:20.176,171,1731184268,84588787,RL_myo,-0.7418915613845203,-0.41049380074632147,-0.062251513048059454,-0.5265135324172636,38.4375,-97.0625,167.9375,-0.056640625,0.9609375,0.23095703125
1969/12/31/18:00:20.189,172,1731184268,98231979,RL_myo,-0.7261494135966566,-0.4336878242576771,-0.047299192766633795,-0.5313988018310716,79.5625,-117.1875,117.5625,0.17431640625,1.1865234375,0.3134765625
1969/12/31/18:00:20.212,173,1731184268,120904264,RL_myo,-0.7181018470595696,-0.43704974730525054,-0.02416864962056685,-0.5410481790058715,-50.1875,-76.4375,126.75,0.86474609375,1.7548828125,0.67578125
1969/12/31/18:00:20.234,174,1731184268,143267805,RL_myo,-0.719998477045885,-0.4170949895847739,0.007201815740562383,-0.5546008443600879,-194.6875,-27.4375,125.8125,1.0009765625,1.30322265625,0.62890625
1969/12/31/18:00:20.250,175,1731184268,158791920,RL_myo,-0.7260170195545566,-0.3884581648843941,0.03204093268881491,-0.5665447202862263,-209.5625,15.125,91.1875,0.49951171875,0.60400390625,0.9755859375
1969/12/31/18:00:20.272,176,1731184268,180729024,RL_myo,-0.724006583130344,-0.3732024155645329,0.04705462999186506,-0.5782043638689099,-80.3125,2.8125,80.5,0.4462890625,0.125,0.9189453125
1969/12/31/18:00:20.295,177,1731184268,204060241,RL_myo,-0.7151968419665425,-0.36986626235852943,0.052733407702602215,-0.5906874071131762,11.25,7.4375,81.6875,0.494140625,0.11083984375,0.8291015625
1969/12/31/18:00:20.309,178,1731184268,217644607,RL_myo,-0.7019836522522763,-0.3783339123901809,0.048947216928040826,-0.6014038349238333,91.5,3.375,70.3125,0.49462890625,0.23388671875,0.73388671875
1969/12/31/18:00:20.332,179,1731184268,240694440,RL_myo,-0.6869069746576533,-0.3895626138818126,0.039121045824571814,-0.6122657281000069,117.0,19.5625,69.8125,0.50732421875,0.32861328125,0.74755859375
1969/12/31/18:00:20.355,180,1731184268,263343937,RL_myo,-0.6765429278176538,-0.39542820291660613,0.03222504879456213,-0.6203932215847047,75.0,18.5,52.25,0.44384765625,0.42529296875,0.67236328125
1969/12/31/18:00:20.368,181,1731184268,277475804,RL_myo,-0.6686715122494039,-0.3990301521619754,0.029112478216773062,-0.6267422197233596,40.9375,12.375,47.0,0.501953125,0.52197265625,0.62060546875
1969/12/31/18:00:20.392,182,1731184268,300561265,RL_myo,-0.663482582612245,-0.39866325357586097,0.028807265108359827,-0.6324781532159595,13.25,15.375,38.5625,0.5107421875,0.43359375,0.62353515625
1969/12/31/18:00:20.422,183,1731184268,331312015,RL_myo,-0.6607973048183343,-0.39652720877479614,0.03118753327442217,-0.6365064276300368,-5.25,8.25,26.625,0.53515625,0.36474609375,0.6552734375
1969/12/31/18:00:20.429,184,1731184268,337521325,RL_myo,-0.6587906554780882,-0.3957382444061445,0.0335071400646165,-0.6389549168241714,-2.6875,1.8125,17.25,0.59326171875,0.390625,0.6728515625
1969/12/31/18:00:20.452,185,1731184268,360796685,RL_myo,-0.6572150836661058,-0.3959281433638585,0.03515563597619586,-0.6403696747608453,2.0625,0.0625,9.0625,0.61669921875,0.38330078125,0.65673828125
1969/12/31/18:00:20.475,186,1731184268,384051980,RL_myo,-0.656889531088723,-0.39542760121934745,0.03716860767750928,-0.6408990956018471,-2.75,-0.875,0.5,0.6240234375,0.3427734375,0.6728515625
1969/12/31/18:00:20.496,187,1731184268,404387011,RL_myo,-0.6573587301453423,-0.39450068068512606,0.038998442908074804,-0.6408805148320713,-4.5,-0.1875,-5.25,0.6083984375,0.31689453125,0.666015625
1969/12/31/18:00:20.513,188,1731184268,421369132,RL_myo,-0.6581243360672202,-0.39323890357795604,0.040282116461501004,-0.6407908192868167,-6.0625,2.375,-5.875,0.5654296875,0.322265625,0.62890625
1969/12/31/18:00:20.534,189,1731184268,443101645,RL_myo,-0.659301667403718,-0.3909549644902543,0.04101182268770698,-0.6409317884915159,-9.75,6.3125,-5.25,0.51904296875,0.337890625,0.64013671875
1969/12/31/18:00:20.549,190,1731184268,457571360,RL_myo,-0.6609053384297507,-0.38834062872181213,0.04168421332971833,-0.6408261200029903,-11.75,5.3125,-6.25,0.4853515625,0.3515625,0.662109375
1969/12/31/18:00:20.572,191,1731184268,480769503,RL_myo,-0.6629112977676833,-0.38583366088080406,0.04259916091344531,-0.6402080200315777,-15.625,3.3125,-7.4375,0.4775390625,0.3857421875,0.6455078125
1969/12/31/18:00:20.594,192,1731184268,503297027,RL_myo,-0.6648861233763356,-0.38346608345635363,0.04296675517320913,-0.6395577094603103,-14.6875,5.0,-8.125,0.482421875,0.41455078125,0.646484375
1969/12/31/18:00:20.609,193,1731184268,517622867,RL_myo,-0.6663484021221332,-0.3817557478726821,0.042844529977077994,-0.6390670561110878,-7.875,4.4375,-6.9375,0.48828125,0.40478515625,0.67529296875
1969/12/31/18:00:20.640,194,1731184268,548581835,RL_myo,-0.6670927557086691,-0.38139639802593533,0.04247909954009457,-0.6385292232592952,-0.1875,1.4375,-6.8125,0.50927734375,0.3974609375,0.66845703125
1969/12/31/18:00:20.655,195,1731184268,563652179,RL_myo,-0.667770303442487,-0.3818881993089883,0.0419912228103858,-0.6375585951704797,0.6875,-0.25,-7.4375,0.5244140625,0.43798828125,0.634765625
1969/12/31/18:00:20.669,196,1731184268,577595294,RL_myo,-0.6682906255387562,-0.3824209186872919,0.04131805967942812,-0.63673754303615,2.0,-0.625,-6.25,0.5126953125,0.44384765625,0.64892578125
1969/12/31/18:00:20.705,197,1731184268,614266407,RL_myo,-0.6681669605479996,-0.38327443480466183,0.04107383672349322,-0.6363698298898421,7.6875,-4.0625,-3.5,0.5078125,0.38427734375,0.689453125
1969/12/31/18:00:20.715,198,1731184268,623433502,RL_myo,-0.6682420174714756,-0.3846862212186237,0.041562956790398654,-0.6354066712846409,6.375,-9.0,-5.9375,0.51953125,0.37060546875,0.666015625
1969/12/31/18:00:20.735,199,1731184268,644128831,RL_myo,-0.6688909807223584,-0.38595497829271846,0.04204980709103147,-0.633920676711965,1.1875,-7.0,-8.9375,0.5458984375,0.41845703125,0.63037109375
1969/12/31/18:00:20.752,200,1731184268,660727403,RL_myo,-0.6702534674691404,-0.3857832970198904,0.04186795471533694,-0.6325967210269204,-0.25,-4.0,-11.0,0.4814453125,0.39111328125,0.68115234375
1969/12/31/18:00:20.774,201,1731184268,683160043,RL_myo,-0.6712910390418833,-0.3859053768398789,0.04253930850188132,-0.6313761068177364,1.4375,-8.6875,-9.4375,0.47607421875,0.34423828125,0.70361328125
1969/12/31/18:00:20.796,202,1731184268,704309357,RL_myo,-0.6725247671485076,-0.38688941818262906,0.04376080025823395,-0.6293742988325084,-1.875,-10.6875,-12.625,0.53662109375,0.38330078125,0.63818359375
1969/12/31/18:00:20.812,203,1731184268,720813912,RL_myo,-0.6741440674710818,-0.3880325892613741,0.04327069924289308,-0.6269674094812985,1.875,-5.5625,-17.4375,0.5166015625,0.41943359375,0.61376953125
