time,.header.seq,.header.stamp.secs,.header.stamp.nsecs,.header.frame_id,.orientation.x,.orientation.y,.orientation.z,.orientation.w,.angular_velocity.x,.angular_velocity.y,.angular_velocity.z,.linear_acceleration.x,.linear_acceleration.y,.linear_acceleration.z
1969/12/31/18:00:05.504000,1,1731185424,465951061,RU_myo,0.6313196677894434,0.427573651055308,-0.643588376406448,0.0664097262452783,-6.8125,1.875,-2.6875,0.87939453125,0.4765625,-0.18017578125
1969/12/31/18:00:05.519000,2,1731185424,480853335,RU_myo,0.633082729970895,0.4270195506051274,-0.6423604560560836,0.0650661579395462,-10.5625,7.3125,-5.875,0.87353515625,0.4658203125,-0.181640625
1969/12/31/18:00:05.534000,3,1731185424,496009175,RU_myo,0.6347344846267207,0.4270831030804081,-0.6408993257602237,0.0629302099865515,-11.625,7.25,-12.625,0.9130859375,0.48291015625,-0.2138671875
1969/12/31/18:00:05.557000,4,1731185424,518936903,RU_myo,0.6361403051383479,0.4290986706124146,-0.6385207956296542,0.05908499475858,-11.25,7.375,-26.0,0.90576171875,0.521484375,-0.25634765625
1969/12/31/18:00:05.585000,5,1731185424,546967948,RU_myo,0.6358560122533614,0.4361515707009523,-0.6345742905930312,0.0526726568030956,2.8125,1.875,-48.5625,0.81982421875,0.6435546875,-0.291015625
1969/12/31/18:00:05.594000,6,1731185424,555994676,RU_myo,0.6342250529047185,0.4473328277103919,-0.6289149210980868,0.0460211423241418,23.9375,-3.3125,-66.0625,0.84423828125,0.72216796875,-0.2236328125
1969/12/31/18:00:05.617000,7,1731185424,578416063,RU_myo,0.6333657956673574,0.459475543007022,-0.6214028298823712,0.0398562074367143,29.5,1.9375,-78.1875,1.0244140625,0.77734375,-0.193359375
1969/12/31/18:00:05.639000,8,1731185424,601059543,RU_myo,0.6341593025703967,0.4720488976014867,-0.6113930446436634,0.0347902601025145,34.3125,15.375,-83.8125,1.1171875,0.87548828125,-0.13623046875
1969/12/31/18:00:05.660000,9,1731185424,621968469,RU_myo,0.6368551193509063,0.482737889490734,-0.6004163129245607,0.0296637519651658,24.0,22.5625,-84.3125,1.0791015625,0.82763671875,-0.06396484375
1969/12/31/18:00:05.684000,10,1731185424,646035676,RU_myo,0.6421126966655709,0.4924491669864853,-0.5871180636146508,0.0218513636317751,6.375,30.375,-97.1875,1.01416015625,0.83935546875,0.00048828125
1969/12/31/18:00:05.698000,11,1731185424,659522542,RU_myo,0.648319239641002,0.5017119327668081,-0.5725741656064997,0.0112305347480648,-14.4375,40.1875,-111.0,0.94921875,0.88623046875,0.03125
1969/12/31/18:00:05.713000,12,1731185424,675116072,RU_myo,0.657103167874904,0.5098256326638559,-0.5552356973953188,-0.0025634713961309,-37.3125,51.0625,-127.5625,0.92431640625,0.9140625,-0.013671875
1969/12/31/18:00:05.737000,13,1731185424,698564294,RU_myo,0.6690835969207249,0.5161257886846972,-0.5343757426601848,-0.0195927599536172,-64.1875,65.125,-144.6875,0.92041015625,0.95751953125,0.013671875
1969/12/31/18:00:05.773000,14,1731185424,735017090,RU_myo,0.6825652402058565,0.5213082103727282,-0.5106879517841725,-0.0392461280025365,-81.5,73.3125,-161.3125,0.89697265625,0.91845703125,0.0166015625
1969/12/31/18:00:05.782000,15,1731185424,743441823,RU_myo,0.6956933669277662,0.5257679121526388,-0.485911115468674,-0.0589001666156601,-84.9375,77.25,-163.6875,0.82177734375,0.82275390625,-0.0048828125
1969/12/31/18:00:05.797000,16,1731185424,758439722,RU_myo,0.7078585046720283,0.5316415948687907,-0.4588231766508266,-0.0759923978888225,-69.3125,91.9375,-166.6875,0.85009765625,0.74609375,0.0576171875
1969/12/31/18:00:05.817000,17,1731185424,779317391,RU_myo,0.7185134785602272,0.5393733953480061,-0.4297530922988922,-0.0901498817391654,-49.4375,105.25,-166.4375,0.80615234375,0.81884765625,0.173828125
1969/12/31/18:00:05.834000,18,1731185424,795365438,RU_myo,0.7286356907460189,0.5462021106120056,-0.400267453502462,-0.1026608503798629,-47.8125,110.75,-158.5,0.6650390625,0.74365234375,0.15625
1969/12/31/18:00:05.856000,19,1731185424,818417311,RU_myo,0.7409087288322982,0.5489523936994555,-0.3692641741029248,-0.1155400134837746,-73.125,118.5,-154.375,0.59033203125,0.64990234375,0.203125
1969/12/31/18:00:05.862000,20,1731185424,823905046,RU_myo,0.7567363410878682,0.5459146503218175,-0.3365578468106553,-0.1267127475478637,-105.5,134.875,-137.875,0.49267578125,0.5205078125,0.28857421875
1969/12/31/18:00:05.884000,21,1731185424,846299085,RU_myo,0.773760775106886,0.5400516950497537,-0.3025583467858984,-0.1345246310906032,-116.4375,151.8125,-120.375,0.4658203125,0.71728515625,0.30126953125
1969/12/31/18:00:05.901000,22,1731185424,862692237,RU_myo,0.792510320331031,0.5292557753843476,-0.2680154664643836,-0.1413627466024852,-144.3125,156.8125,-106.5625,0.40185546875,0.7900390625,0.271484375
1969/12/31/18:00:05.922000,23,1731185424,883978457,RU_myo,0.8137785991053504,0.5109233220663683,-0.2347403054195738,-0.1470331242214647,-183.3125,153.0,-84.625,0.38525390625,0.71630859375,0.3271484375
1969/12/31/18:00:05.944000,24,1731185424,906248947,RU_myo,0.8369799149695412,0.4861478175988037,-0.2011730328695112,-0.1505135616068612,-216.25,158.375,-65.875,0.38818359375,0.63525390625,0.35595703125
1969/12/31/18:00:05.961000,25,1731185424,922871521,RU_myo,0.860317984453541,0.4579613932142546,-0.1665092204036367,-0.1496629796296617,-227.8125,172.8125,-42.6875,0.3056640625,0.5703125,0.45458984375
1969/12/31/18:00:05.982000,26,1731185424,943796156,RU_myo,0.880390513128489,0.4322605112296144,-0.1333647581243586,-0.142398160505322,-199.4375,181.5,-12.5,0.263671875,0.50390625,0.50537109375
1969/12/31/18:00:06.004000,27,1731185424,966207753,RU_myo,0.895634785812051,0.4123557729961984,-0.1039434401143466,-0.1303718074481764,-150.3125,174.6875,13.5,0.1787109375,0.3798828125,0.54638671875
1969/12/31/18:00:06.021000,28,1731185424,982814652,RU_myo,0.9049963558155628,0.402051055220686,-0.0808130555810214,-0.1131626926338472,-79.0625,159.0625,44.4375,0.2119140625,0.458984375,0.6513671875
1969/12/31/18:00:06.049000,29,1731185425,11282787,RU_myo,0.9095155846963984,0.4006482986341292,-0.060548920207961,-0.0927155340684403,-20.25,155.75,60.125,0.2314453125,0.5078125,0.5693359375
1969/12/31/18:00:06.064000,30,1731185425,26191825,RU_myo,0.9094406103925012,0.407844440177362,-0.0407722367612208,-0.0701306886806029,34.4375,161.25,67.125,0.22900390625,0.59326171875,0.48828125
1969/12/31/18:00:06.082000,31,1731185425,44324355,RU_myo,0.9052932915093304,0.4215790698796484,-0.0211796637104731,-0.0476084659774324,78.0,161.4375,64.1875,0.18798828125,0.67431640625,0.52490234375
1969/12/31/18:00:06.102000,32,1731185425,63778703,RU_myo,0.8976480810611043,0.4399122616760083,-0.0025636624102112,-0.0264301386576538,110.3125,153.3125,58.4375,0.13525390625,0.77001953125,0.5361328125
1969/12/31/18:00:06.124000,33,1731185425,86259161,RU_myo,0.8885365299652799,0.458459701625968,0.0167855702232913,-0.0059817668432092,112.625,155.0,52.9375,0.1015625,0.8095703125,0.361328125
1969/12/31/18:00:06.141000,34,1731185425,102667777,RU_myo,0.8801526234126705,0.4729752204455467,0.0382091222091769,0.0128787935880772,89.5,161.375,38.8125,0.09130859375,0.81640625,0.27978515625
1969/12/31/18:00:06.162000,35,1731185425,123812398,RU_myo,0.870979671302334,0.4869429444744233,0.0586553233441866,0.0289919652325584,90.3125,147.9375,28.875,-0.029296875,0.98974609375,0.4052734375
1969/12/31/18:00:06.192000,36,1731185425,154425096,RU_myo,0.8617242215601844,0.4998952666509357,0.0758082931844276,0.0422988302550791,84.25,123.0,25.125,-0.123046875,1.025390625,0.25390625
1969/12/31/18:00:06.201000,37,1731185425,162867754,RU_myo,0.8561822889580504,0.5058842810924875,0.0911910130251178,0.0521265897747326,39.25,104.3125,8.5625,-0.1376953125,0.94580078125,0.15185546875
1969/12/31/18:00:06.222000,38,1731185425,183759948,RU_myo,0.8520206568899834,0.5092958206956102,0.105045314887002,0.0603659595719029,18.75,90.375,5.9375,-0.1513671875,0.84521484375,0.28271484375
1969/12/31/18:00:06.244000,39,1731185425,206124761,RU_myo,0.8441178323700086,0.5192035781429817,0.1149377307363313,0.0684254891956598,66.6875,73.9375,16.75,-0.06298828125,0.7373046875,0.30419921875
1969/12/31/18:00:06.267000,40,1731185425,228733641,RU_myo,0.8328150287726512,0.5345788641154265,0.1220168017089218,0.0758713779510704,96.4375,59.75,22.25,0.0029296875,0.8173828125,0.21044921875
1969/12/31/18:00:06.282000,41,1731185425,243680408,RU_myo,0.8214964442582106,0.5491495288647834,0.129764576899692,0.0820947111618465,100.375,57.875,18.9375,0.005859375,1.00537109375,0.2158203125
1969/12/31/18:00:06.305000,42,1731185425,266420591,RU_myo,0.8101747962799601,0.5633318160828563,0.1365449423098222,0.087347256345711,100.9375,50.6875,17.6875,-0.04833984375,0.9951171875,0.30859375
1969/12/31/18:00:06.319000,43,1731185425,281172858,RU_myo,0.800087805848938,0.575772678713231,0.1414863849525357,0.0912520041001039,86.0625,37.625,14.875,-0.08984375,0.978515625,0.2509765625
1969/12/31/18:00:06.342000,44,1731185425,303820412,RU_myo,0.7937381177832497,0.5828518368742118,0.1461860036981608,0.0943037059347216,45.9375,31.8125,7.8125,-0.13720703125,1.01318359375,0.18505859375
1969/12/31/18:00:06.365000,45,1731185425,326401006,RU_myo,0.7904546321145886,0.5859130512484892,0.1505220944242915,0.0960753352083677,16.75,25.1875,-0.625,-0.15576171875,1.0498046875,0.1630859375
1969/12/31/18:00:06.379000,46,1731185425,341156720,RU_myo,0.789155446220129,0.586937796492595,0.1528992491903026,0.0967446347172174,4.5625,12.75,-3.625,-0.13134765625,0.9794921875,0.193359375
1969/12/31/18:00:06.402000,47,1731185425,363633455,RU_myo,0.7889293663069108,0.586951240727834,0.153391063638628,0.0977234750837419,0.3125,6.5625,0.3125,-0.07421875,0.87158203125,0.2431640625
1969/12/31/18:00:06.424000,48,1731185425,386243687,RU_myo,0.7880460000350682,0.5879063645215534,0.1530192333737058,0.0996730786195698,7.1875,6.6875,6.0625,-0.03369140625,0.8388671875,0.25830078125
1969/12/31/18:00:06.439000,49,1731185425,401214499,RU_myo,0.7854319711688632,0.5909661443003523,0.1531433645992133,0.1019938470487387,22.1875,9.875,11.0,-0.06494140625,0.896484375,0.2607421875
1969/12/31/18:00:06.470000,50,1731185425,431399343,RU_myo,0.7815360971847329,0.5959182221817048,0.1529012748709587,0.1034601440743613,32.0,4.125,14.1875,-0.11767578125,0.95458984375,0.21240234375
1969/12/31/18:00:06.485000,51,1731185425,446313754,RU_myo,0.7777796174228343,0.6007618109147336,0.1526015573345696,0.1041963433480441,27.6875,1.3125,10.25,-0.103515625,0.9658203125,0.14111328125
1969/12/31/18:00:06.501000,52,1731185425,462886773,RU_myo,0.7751993033688215,0.6043502600515512,0.1510112658688554,0.1049876221885333,22.5,-2.6875,5.5,-0.00634765625,1.08642578125,0.24169921875
1969/12/31/18:00:06.525000,53,1731185425,486792361,RU_myo,0.7748658595179754,0.6048165263460904,0.1505174643222786,0.105472091787874,11.0,1.625,-1.1875,-0.03662109375,1.11474609375,0.38134765625
1969/12/31/18:00:06.548000,54,1731185425,509427751,RU_myo,0.7761040828995683,0.6034262653201048,0.149971508587042,0.1051082367874995,-8.0625,-3.4375,-2.5625,-0.0986328125,1.01416015625,0.2744140625
1969/12/31/18:00:06.561000,55,1731185425,522665306,RU_myo,0.7778757474360521,0.601718386552464,0.1478964952948488,0.1047422145794307,-21.6875,-11.375,1.9375,-0.08935546875,0.95751953125,0.126953125
1969/12/31/18:00:06.584000,56,1731185425,545236351,RU_myo,0.7782847875763894,0.6020094784617621,0.145573619196117,0.103274869467434,-3.25,-15.4375,-2.3125,-0.04541015625,0.97705078125,0.1875
1969/12/31/18:00:06.607000,57,1731185425,569247435,RU_myo,0.7756864662061254,0.6057532649220639,0.1455785506689966,0.1008978382624115,31.3125,-6.9375,-10.125,-0.046875,0.962890625,0.27587890625
1969/12/31/18:00:06.621000,58,1731185425,582841507,RU_myo,0.7711549048685397,0.6115403666200648,0.1476510776378816,0.0976609029436175,49.375,-0.375,-17.75,-0.056640625,0.9765625,0.2685546875
1969/12/31/18:00:06.642000,59,1731185425,603900884,RU_myo,0.7656376525636404,0.618296350483871,0.1502710379951915,0.0944839832723625,54.25,1.8125,-16.6875,-0.078125,0.97265625,0.205078125
1969/12/31/18:00:06.665000,60,1731185425,626199453,RU_myo,0.7594531265935027,0.6255935616827527,0.153270117414908,0.09149817045199,56.9375,3.625,-12.5,-0.13525390625,0.90576171875,0.140625
1969/12/31/18:00:06.681000,61,1731185425,642783591,RU_myo,0.7531656539525553,0.632978995987357,0.1562609671868499,0.0875305574007589,58.3125,-0.5,-13.75,-0.1806640625,0.890625,0.115234375
1969/12/31/18:00:06.705000,62,1731185425,666630981,RU_myo,0.7476467224406864,0.6394274687148854,0.1586971571839158,0.0834991196259987,53.125,-3.125,-12.9375,-0.18603515625,0.876953125,0.126953125
1969/12/31/18:00:06.727000,63,1731185425,689327494,RU_myo,0.7426120755498132,0.6452533495509679,0.1602298782112658,0.0806337787112693,45.625,-2.5,-8.8125,-0.13671875,0.88525390625,0.087890625
1969/12/31/18:00:06.750000,64,1731185425,711838636,RU_myo,0.7386641297804284,0.6497339003067807,0.1608923026029754,0.0795916398309104,31.5625,0.1875,-1.8125,-0.115234375,0.92431640625,0.04736328125
1969/12/31/18:00:06.762000,65,1731185425,723855149,RU_myo,0.735158426054978,0.6535487601935113,0.1621206226836617,0.0783135387436513,26.4375,1.0625,-2.5625,-0.16796875,0.95751953125,0.02783203125
1969/12/31/18:00:06.784000,66,1731185425,746330096,RU_myo,0.7316596081828887,0.6573156186303102,0.1640694941850008,0.0754426692011387,25.0625,-2.9375,-7.5625,-0.23681640625,0.9755859375,-0.02587890625
1969/12/31/18:00:06.801000,67,1731185425,762711098,RU_myo,0.7284317037502233,0.6611674388321115,0.1644373227671444,0.0721473331517315,31.1875,-9.625,-6.625,-0.19775390625,0.99609375,0.0634765625
1969/12/31/18:00:06.825000,68,1731185425,786821539,RU_myo,0.7240960504549364,0.6662928843265689,0.1641316934732634,0.0692783458877478,47.625,-9.0,-5.3125,-0.123046875,0.9482421875,0.162109375
1969/12/31/18:00:06.844000,69,1731185425,806324774,RU_myo,0.7197611134664571,0.670930644438882,0.1656573661760485,0.0659821712735108,48.875,-2.75,-13.25,-0.15771484375,1.02783203125,0.1826171875
1969/12/31/18:00:06.862000,70,1731185425,824217259,RU_myo,0.7161065147256712,0.6742949768304202,0.1692604300489504,0.0621984775405266,37.6875,2.9375,-20.75,-0.23193359375,1.0791015625,0.10400390625
1969/12/31/18:00:06.885000,71,1731185425,846834839,RU_myo,0.7129834938717703,0.676910105901715,0.1736527728846148,0.0573756086156548,28.5625,1.3125,-25.8125,-0.28955078125,1.041015625,0.0166015625
1969/12/31/18:00:06.904000,72,1731185425,866181541,RU_myo,0.7114115795784951,0.6779010727412069,0.1780512722119665,0.0513949849854219,18.6875,-4.0,-33.25,-0.30029296875,1.0791015625,0.037109375
1969/12/31/18:00:06.930000,73,1731185425,891767895,RU_myo,0.7115374475887989,0.6769890907787053,0.1827522619954416,0.044741953254061,4.4375,-6.5,-42.0625,-0.28173828125,1.087890625,0.02587890625
1969/12/31/18:00:06.942000,74,1731185425,903894289,RU_myo,0.7143174320004491,0.6730563379192473,0.1875670741294864,0.0395520546813886,-16.4375,-1.6875,-44.875,-0.2216796875,1.01318359375,0.08056640625
1969/12/31/18:00:06.960000,75,1731185425,921718012,RU_myo,0.7184082426422503,0.6675642268290817,0.192145212220714,0.0364392286200019,-26.1875,5.625,-39.75,-0.1865234375,0.958984375,0.14453125
1969/12/31/18:00:06.982000,76,1731185425,944237569,RU_myo,0.7236524666098987,0.6602352168791561,0.197820314126407,0.0358286098093801,-37.1875,19.25,-34.75,-0.21630859375,0.9560546875,0.21240234375
1969/12/31/18:00:07.002000,77,1731185425,963829351,RU_myo,0.7287110999238035,0.6521717147739208,0.2056309318739671,0.0369879325365461,-41.0625,35.375,-32.6875,-0.26416015625,0.8720703125,0.2255859375
1969/12/31/18:00:07.035000,78,1731185425,996594662,RU_myo,0.7329655098594898,0.644335769659958,0.2143716581134684,0.0404693648431747,-39.4375,48.875,-24.5625,-0.296875,0.884765625,0.2392578125
1969/12/31/18:00:07.042000,79,1731185426,4313027,RU_myo,0.736909084636479,0.6360136388563,0.2243138313624666,0.046205597371806,-36.8125,64.5625,-19.1875,-0.31005859375,0.84326171875,0.33642578125
1969/12/31/18:00:07.062000,80,1731185426,23809039,RU_myo,0.7391700558806313,0.6286302564421653,0.2360949443555972,0.0520654052573227,-29.375,73.75,-21.25,-0.345703125,0.791015625,0.294921875
1969/12/31/18:00:07.080000,81,1731185426,41763041,RU_myo,0.7413603955364229,0.6206894337403165,0.2478729265826949,0.0607322240703722,-39.375,82.8125,-11.4375,-0.32666015625,0.77880859375,0.2421875
1969/12/31/18:00:07.102000,82,1731185426,64304854,RU_myo,0.74339015081675,0.6124011317139709,0.2592312973576433,0.0716594167878203,-43.4375,90.0625,-2.375,-0.3095703125,0.78076171875,0.25439453125
1969/12/31/18:00:07.122000,83,1731185426,83692288,RU_myo,0.7457177253170838,0.6031908456727038,0.2702822368588071,0.083745986668989,-57.125,90.8125,-0.25,-0.30615234375,0.8642578125,0.17138671875
1969/12/31/18:00:07.140000,84,1731185426,101660490,RU_myo,0.7494784270608035,0.5912084082181727,0.2816876733354188,0.0969884535059546,-81.75,93.5,-2.5,-0.27734375,0.81591796875,0.0859375
1969/12/31/18:00:07.162000,85,1731185426,124279840,RU_myo,0.7533784012254144,0.5788739169749518,0.2904135488155652,0.1139558839089239,-91.8125,94.25,21.4375,-0.22509765625,0.68603515625,0.0703125
1969/12/31/18:00:07.182000,86,1731185426,143746935,RU_myo,0.7561969109616462,0.5688720001745534,0.2941410052404692,0.1342830901699589,-81.9375,86.9375,52.3125,-0.14501953125,0.69482421875,0.1630859375
1969/12/31/18:00:07.200000,87,1731185426,161813906,RU_myo,0.7583955180717519,0.5596562177223253,0.2952401706972284,0.1563790195009922,-84.0625,80.625,70.75,-0.20068359375,0.9052734375,0.18505859375
1969/12/31/18:00:07.222000,88,1731185426,184291179,RU_myo,0.7591539312617104,0.5519843210098615,0.2962269058786749,0.1767717122243236,-73.125,76.1875,63.0625,-0.14697265625,1.0185546875,0.17724609375
1969/12/31/18:00:07.242000,89,1731185426,203931046,RU_myo,0.7599497923247522,0.5444780841395013,0.2986083842612601,0.1919712527599474,-65.5625,65.3125,34.6875,-0.09326171875,0.9658203125,0.130859375
1969/12/31/18:00:07.260000,90,1731185426,221923596,RU_myo,0.7595618438661487,0.5385417991346054,0.2992712729408331,0.2085071728260016,-58.9375,64.125,44.0,0.0205078125,0.92236328125,0.13916015625
1969/12/31/18:00:07.282000,91,1731185426,244383594,RU_myo,0.7574185820162791,0.5356681018434093,0.2984750476315259,0.2242530316969787,-33.5625,53.875,62.4375,-0.099609375,0.849609375,0.2294921875
1969/12/31/18:00:07.305000,92,1731185426,266805999,RU_myo,0.7520005377319446,0.536532851190243,0.3008002150927779,0.2369534161911858,-2.0,58.4375,48.0625,-0.04248046875,0.81982421875,0.1572265625
1969/12/31/18:00:07.318000,93,1731185426,280303996,RU_myo,0.742692629538726,0.542675885045103,0.305426850609121,0.2462214059466815,42.25,56.5,45.5,-0.1181640625,0.85498046875,0.1552734375
1969/12/31/18:00:07.342000,94,1731185426,303495131,RU_myo,0.7330023924395118,0.5496449782594558,0.3098886790253478,0.2541001715151709,44.8125,49.25,45.3125,-0.1708984375,0.966796875,0.09326171875
1969/12/31/18:00:07.362000,95,1731185426,324412156,RU_myo,0.725164847115067,0.5557155528733645,0.3108808557539593,0.262048206116581,29.5625,34.0,45.5,-0.08154296875,1.0859375,0.0966796875
1969/12/31/18:00:07.380000,96,1731185426,341578889,RU_myo,0.7204464229209927,0.5580819829506597,0.3109340064695024,0.2698545823717452,2.6875,31.75,28.25,0.06787109375,1.04345703125,0.076171875
1969/12/31/18:00:07.402000,97,1731185426,363452921,RU_myo,0.7190403900710028,0.55618811836392,0.3097733429210814,0.2787044500054498,-31.1875,29.375,28.0,0.0009765625,1.14794921875,0.0751953125
1969/12/31/18:00:07.422000,98,1731185426,384450739,RU_myo,0.7206176709921802,0.5514196205101946,0.3064730921609128,0.2876122705162759,-49.6875,21.125,25.375,0.01123046875,1.119140625,0.1806640625
1969/12/31/18:00:07.440000,99,1731185426,401693993,RU_myo,0.7211108008966851,0.5490428012583106,0.3034232090111242,0.2940842931031174,-27.5,12.5,24.5,0.00244140625,0.83447265625,0.185546875
1969/12/31/18:00:07.469000,100,1731185426,431058131,RU_myo,0.7195128396313568,0.5499500072173842,0.3009160416849838,0.2988407586388804,-15.375,6.0,24.9375,-0.00048828125,0.93310546875,0.03466796875
1969/12/31/18:00:07.482000,101,1731185426,444445154,RU_myo,0.7173365368130689,0.5513700593118152,0.2985443330116337,0.3037937324471276,-9.1875,8.0625,25.8125,0.0224609375,1.041015625,0.0947265625
1969/12/31/18:00:07.499000,102,1731185426,461051663,RU_myo,0.713056572803578,0.5549657900984533,0.2974426193521516,0.3083685846433552,22.0,13.0,26.875,0.04638671875,0.9619140625,0.25732421875
1969/12/31/18:00:07.522000,103,1731185426,483334846,RU_myo,0.7099296756122746,0.5565418951279099,0.2970095263975005,0.3131234834400282,10.5,16.9375,25.875,-0.02978515625,1.0029296875,0.25
1969/12/31/18:00:07.543000,104,1731185426,504455690,RU_myo,0.7081191788836037,0.5578399427478022,0.2960415496582603,0.3158183459653276,-6.625,4.5,20.625,-0.08984375,1.10498046875,0.06787109375
1969/12/31/18:00:07.558000,105,1731185426,520349387,RU_myo,0.7084180839647296,0.5575908320711533,0.2931700893746852,0.3182570988964415,-18.9375,-4.375,16.3125,-0.0400390625,1.01513671875,0.1044921875
1969/12/31/18:00:07.582000,106,1731185426,543455293,RU_myo,0.7080038700837465,0.5580283973019753,0.2907949337942037,0.3205824920837862,-1.625,-1.4375,15.0,0.00390625,0.861328125,0.232421875
1969/12/31/18:00:07.602000,107,1731185426,564426524,RU_myo,0.7071692138903249,0.5591556333893722,0.2885807045808266,0.3224559776439312,-1.25,-3.125,16.25,-0.0185546875,0.94287109375,0.18310546875
1969/12/31/18:00:07.618000,108,1731185426,580393807,RU_myo,0.7058236633239982,0.5607278536101571,0.2865291252826124,0.3244969812531673,2.3125,-1.5,15.3125,0.02001953125,1.0888671875,0.21337890625
1969/12/31/18:00:07.642000,109,1731185426,603429502,RU_myo,0.7038961609607189,0.5621036894109661,0.2860264837202505,0.3267391735711696,14.75,6.3125,15.125,-0.01318359375,0.935546875,0.3056640625
1969/12/31/18:00:07.662000,110,1731185426,624324221,RU_myo,0.7025960483691824,0.5636149692156225,0.2848593308782012,0.3279514002161078,1.6875,-2.0625,15.0,-0.0498046875,0.96630859375,0.13671875
1969/12/31/18:00:07.679000,111,1731185426,640356523,RU_myo,0.7030863318638282,0.5638607113254661,0.2822355411527338,0.3287458098288548,-17.5,-9.75,11.0625,-0.0322265625,1.05126953125,0.0673828125
1969/12/31/18:00:07.709000,112,1731185426,671042911,RU_myo,0.7040907820937287,0.5629063885971709,0.2804765620910865,0.3297354490568117,-12.25,-3.0,3.3125,0.015625,1.08203125,0.2265625
1969/12/31/18:00:07.723000,113,1731185426,684495870,RU_myo,0.7033404191768858,0.563197261802059,0.2803473527101828,0.3309478219888115,14.4375,4.6875,5.25,0.009765625,0.861328125,0.37548828125
1969/12/31/18:00:07.754000,114,1731185426,716000247,RU_myo,0.7018722146426659,0.564903673929722,0.2801629241855671,0.3313124950935203,11.6875,-0.1875,6.4375,0.0,0.9541015625,0.212890625
1969/12/31/18:00:07.761000,115,1731185426,723423936,RU_myo,0.7008974919680365,0.5660649081696046,0.2800416000304234,0.3314964973333106,0.75,-1.125,5.5625,-0.03466796875,1.05224609375,0.12646484375
1969/12/31/18:00:07.784000,116,1731185426,745969074,RU_myo,0.7012221078682446,0.5661416304385418,0.2791337656059786,0.331444641863211,-6.9375,-4.25,1.6875,-0.00927734375,1.10791015625,0.16064453125
1969/12/31/18:00:07.798000,117,1731185426,760172038,RU_myo,0.7038518112209092,0.5637650965602565,0.2772435111061807,0.3315080380488039,-23.625,-6.25,-6.6875,0.046875,1.013671875,0.19287109375
1969/12/31/18:00:07.822000,118,1731185426,783493919,RU_myo,0.7066598061696111,0.5608963426528942,0.2751071733960816,0.3321795512805583,-23.0625,-5.0625,-1.875,0.0048828125,0.90283203125,0.24365234375
1969/12/31/18:00:07.844000,119,1731185426,806029688,RU_myo,0.705536571357607,0.5628300652728172,0.275158652450912,0.3312524416262422,17.0625,-4.4375,0.0,0.00390625,0.94677734375,0.26806640625
1969/12/31/18:00:07.867000,120,1731185426,828569063,RU_myo,0.702428128864013,0.5666180326941808,0.2768694814500489,0.32997275500859,37.5625,0.875,0.1875,-0.00146484375,0.8984375,0.2861328125
1969/12/31/18:00:07.882000,121,1731185426,843618121,RU_myo,0.6990705044625405,0.5705850934878048,0.2780900391453186,0.3292400507352609,26.375,0.4375,4.4375,0.0078125,0.95947265625,0.13330078125
1969/12/31/18:00:07.904000,122,1731185426,865957747,RU_myo,0.6968268606671162,0.5734660437953361,0.2774244991005644,0.3295522267643447,15.1875,-2.9375,9.6875,0.0234375,0.98876953125,0.16455078125
1969/12/31/18:00:07.925000,123,1731185426,886576741,RU_myo,0.6960429802419486,0.5745727065699783,0.276878975565858,0.3297399087316501,7.9375,-2.625,6.8125,-0.01953125,1.0,0.22021484375
1969/12/31/18:00:07.942000,124,1731185426,903606816,RU_myo,0.6960464243060289,0.5747586715132481,0.2770634675019789,0.3292532151808051,5.1875,-2.0,0.75,-0.05322265625,0.9326171875,0.22412109375
1969/12/31/18:00:07.964000,125,1731185426,925866310,RU_myo,0.6937719767151699,0.5772480717750627,0.2788272382223206,0.3282079815940056,22.375,2.5625,-1.9375,-0.001953125,0.96728515625,0.17578125
1969/12/31/18:00:07.987000,126,1731185426,948513037,RU_myo,0.692080984853833,0.5788502363175956,0.2804826358620005,0.3275451194854178,13.9375,4.5625,-4.5625,0.01806640625,1.10791015625,0.16162109375
1969/12/31/18:00:08.002000,127,1731185426,963672697,RU_myo,0.6929053984368005,0.5781536235018829,0.2804704286308226,0.3270425585645152,-5.875,-1.875,-5.375,-0.0009765625,1.029296875,0.1640625
1969/12/31/18:00:08.024000,128,1731185426,985981403,RU_myo,0.6949004847251163,0.5772831606965437,0.2791809237709866,0.325446586258614,-13.4375,-11.875,-8.0625,0.0,0.9189453125,0.11962890625
1969/12/31/18:00:08.045000,129,1731185427,7018609,RU_myo,0.6963377378501746,0.5765173504553733,0.2785839266784884,0.324241415099941,-8.625,-6.75,-9.625,0.025390625,0.9443359375,0.14599609375
1969/12/31/18:00:08.062000,130,1731185427,23494904,RU_myo,0.6963843099537507,0.5768105643845161,0.2785781392434848,0.3236242976049422,4.125,-2.0,-4.375,0.02197265625,0.9267578125,0.20166015625
1969/12/31/18:00:08.084000,131,1731185427,45997579,RU_myo,0.6962687745922755,0.5773042929862139,0.2783366013974556,0.3232000667542823,4.25,-3.125,-0.6875,-0.00244140625,0.91162109375,0.19140625
1969/12/31/18:00:08.098000,132,1731185427,60099230,RU_myo,0.6964528975577862,0.5774882439784588,0.2774214215074617,0.3232615727840522,-0.75,-3.9375,1.5625,0.0087890625,0.9501953125,0.185546875
1969/12/31/18:00:08.121000,133,1731185427,83375604,RU_myo,0.6962121934886562,0.5776742240203965,0.2769955228872103,0.3238125273064458,3.0625,0.9375,1.1875,0.03466796875,0.96533203125,0.21875
1969/12/31/18:00:08.144000,134,1731185427,105790209,RU_myo,0.69612179811443,0.57722260804631,0.2766786594346963,0.3250806397858355,-3.9375,4.25,2.6875,0.03076171875,0.9912109375,0.1875
1969/12/31/18:00:08.165000,135,1731185427,126861209,RU_myo,0.6974760313484422,0.5752178279012619,0.2749131045062906,0.3272222809187887,-20.375,2.0625,6.0625,0.029296875,0.97314453125,0.1669921875
1969/12/31/18:00:08.181000,136,1731185427,143298879,RU_myo,0.699432589071406,0.5729011502770065,0.2726560236828668,0.3289939484330987,-31.25,-1.4375,4.0,0.0390625,1.03271484375,0.08544921875
1969/12/31/18:00:08.210000,137,1731185427,171985867,RU_myo,0.7033413559674718,0.5689355878653827,0.2694829546642704,0.3301547682398729,-50.125,-6.8125,-1.9375,0.0478515625,1.09716796875,0.03369140625
1969/12/31/18:00:08.225000,138,1731185427,187012167,RU_myo,0.7092665725965788,0.5635678369005346,0.264357446292236,0.3308282980613991,-67.625,-16.5,-3.5,0.04638671875,1.08154296875,0.0166015625
1969/12/31/18:00:08.242000,139,1731185427,203415345,RU_myo,0.7159151525750854,0.5588032416936574,0.2583129785742826,0.3293612552898935,-73.625,-29.1875,-12.75,0.0859375,1.10693359375,-0.06689453125
1969/12/31/18:00:08.264000,140,1731185427,225811895,RU_myo,0.7239142965518617,0.555265460011154,0.2519661227796024,0.3227095182014918,-74.9375,-50.5,-35.25,0.1044921875,1.19189453125,-0.166015625
1969/12/31/18:00:08.285000,141,1731185427,246829802,RU_myo,0.7333153102074592,0.5527026913541321,0.2448250132547127,0.3111737515762965,-73.875,-74.0,-51.875,0.0546875,1.24267578125,-0.19140625
1969/12/31/18:00:08.301000,142,1731185427,262689366,RU_myo,0.7436870458328282,0.551295255906279,0.235301507032629,0.2960343214288589,-61.125,-98.8125,-60.125,0.06201171875,1.05517578125,-0.0859375
1969/12/31/18:00:08.324000,143,1731185427,285923940,RU_myo,0.7539593843827532,0.5514304629625804,0.2257849548924712,0.2765697838923457,-26.125,-115.6875,-72.75,0.11181640625,0.8291015625,-0.00927734375
1969/12/31/18:00:08.345000,144,1731185427,306925304,RU_myo,0.7601735306599589,0.557098427359358,0.2174191517753953,0.2539812157600842,16.6875,-123.6875,-77.5,0.18408203125,0.77783203125,-0.0126953125
1969/12/31/18:00:08.361000,145,1731185427,322776945,RU_myo,0.7620629844487887,0.567961239110611,0.2091782016584701,0.2300532950250288,56.25,-129.1875,-71.625,0.22412109375,0.82080078125,0.0302734375
1969/12/31/18:00:08.384000,146,1731185427,345936343,RU_myo,0.7607845577055996,0.5824909366322638,0.1987415372183434,0.2059440867858386,80.1875,-140.6875,-57.0,0.212890625,0.8935546875,0.0576171875
1969/12/31/18:00:08.413000,147,1731185427,374389689,RU_myo,0.7587622654262894,0.5975611437956218,0.1848838309046923,0.181709859558689,81.5625,-155.9375,-44.25,0.2060546875,0.904296875,0.08349609375
1969/12/31/18:00:08.422000,148,1731185427,383426290,RU_myo,0.757913500702006,0.6103837486526584,0.1688931832521906,0.1564413547796763,67.875,-167.8125,-45.75,0.22998046875,0.87841796875,0.1201171875
1969/12/31/18:00:08.444000,149,1731185427,405884298,RU_myo,0.7596793313041592,0.6187425181930148,0.1514963924390907,0.1307434619679824,39.0625,-173.5,-50.1875,0.279296875,0.90234375,0.1259765625
1969/12/31/18:00:08.474000,150,1731185427,436019245,RU_myo,0.7653045087668826,0.6212529342980803,0.1318438139205986,0.1047425855035867,-3.0,-183.75,-50.6875,0.23388671875,0.927734375,0.07275390625
1969/12/31/18:00:08.482000,151,1731185427,444092404,RU_myo,0.7745849564791477,0.6182030290954144,0.1066351393986659,0.080449406827385,-44.75,-201.5625,-28.875,0.18994140625,0.8408203125,0.0888671875
1969/12/31/18:00:08.504000,152,1731185427,465888934,RU_myo,0.787130058164934,0.6093299760127586,0.0755635089956721,0.0585952896896973,-85.5625,-217.6875,-4.125,0.31494140625,0.6357421875,0.0947265625
1969/12/31/18:00:08.525000,153,1731185427,486879933,RU_myo,0.8019298684141541,0.5947025961302408,0.041018181730424,0.0394311687468064,-120.625,-222.4375,15.3125,0.45361328125,0.52197265625,0.1796875
1969/12/31/18:00:08.549000,154,1731185427,511001303,RU_myo,0.8166244338835592,0.5766849279715874,0.0054323622554478,0.0230112423629644,-135.375,-216.3125,30.625,0.482421875,0.52685546875,0.28369140625
1969/12/31/18:00:08.564000,155,1731185427,525829536,RU_myo,0.829975159747667,0.5567144750741632,-0.0337532183659699,0.0084230454511823,-141.0625,-227.3125,52.6875,0.41796875,0.52783203125,0.279296875
1969/12/31/18:00:08.587000,156,1731185427,548261280,RU_myo,0.840459320880615,0.5364413196238,-0.0762944191068096,-0.0061645890638302,-132.5625,-243.8125,64.0,0.439453125,0.48779296875,0.36328125
1969/12/31/18:00:08.587000,1,1731185434,470787159,RU_myo,0.6601495485812826,0.3711510174669729,-0.6506281608613602,0.0559686701228768,-1.9375,3.875,-6.125,0.9140625,0.44775390625,-0.14453125
1969/12/31/18:00:08.596000,2,1731185434,479274727,RU_myo,0.6606535845654542,0.3721364472556887,-0.649728141879089,0.0538947815198906,-5.6875,2.9375,-11.3125,0.912109375,0.46484375,-0.15869140625
1969/12/31/18:00:08.610000,3,1731185434,494225357,RU_myo,0.6607726570523702,0.3740268651779905,-0.6488096567953718,0.0502934296518707,-6.6875,-2.375,-19.25,0.89453125,0.482421875,-0.15576171875
1969/12/31/18:00:08.624000,4,1731185434,507810936,RU_myo,0.6603678054660367,0.3773966301133658,-0.6476719460024138,0.0448017348379767,-7.4375,-6.625,-30.1875,0.90283203125,0.5322265625,-0.177734375
1969/12/31/18:00:08.645000,5,1731185434,528940423,RU_myo,0.6607090922754262,0.3819600461394565,-0.6450840088922845,0.0379030343005117,-10.0,-0.1875,-42.0625,0.92919921875,0.58837890625,-0.21240234375
1969/12/31/18:00:08.671000,6,1731185434,554737887,RU_myo,0.6620496704286192,0.3867195272274114,-0.6412366403174218,0.0308838511327446,-9.6875,4.4375,-47.0,0.9404296875,0.6044921875,-0.14697265625
1969/12/31/18:00:08.690000,7,1731185434,573977562,RU_myo,0.6647978974746965,0.3919084924426209,-0.63550089134287,0.0242921009176394,-6.1875,10.6875,-53.3125,0.95751953125,0.607421875,-0.0380859375
1969/12/31/18:00:08.716000,8,1731185434,599261645,RU_myo,0.668159597823286,0.3971603638472752,-0.628913537587571,0.017151077645779,-9.5,15.3125,-59.3125,0.96435546875,0.6162109375,-0.03466796875
1969/12/31/18:00:08.731000,9,1731185434,614294508,RU_myo,0.6724957058062752,0.4050355331031441,-0.6193332661840872,0.0110475333772858,5.0,30.3125,-66.4375,0.9970703125,0.75830078125,0.01025390625
1969/12/31/18:00:08.750000,10,1731185434,633905518,RU_myo,0.6784112029715536,0.4144930705694845,-0.6065722478750606,0.004882851663313,9.4375,44.1875,-79.8125,0.98681640625,0.79345703125,0.087890625
1969/12/31/18:00:08.765000,11,1731185434,648805679,RU_myo,0.6865349554870571,0.4237741994973895,-0.5908302248501701,-0.0021973024891122,1.3125,59.875,-93.5625,0.99853515625,0.787109375,0.1416015625
1969/12/31/18:00:08.784000,12,1731185434,667423053,RU_myo,0.693673485485919,0.4340876224175852,-0.5747144337294688,-0.0093995351310894,1.0,67.0625,-102.0,0.98828125,0.8056640625,0.1884765625
1969/12/31/18:00:08.803000,13,1731185434,686445968,RU_myo,0.7020495538529086,0.4441064644265138,-0.5564148611478973,-0.0172735197131258,-5.75,78.6875,-109.1875,0.9912109375,0.85009765625,0.1796875
1969/12/31/18:00:08.825000,14,1731185434,708777802,RU_myo,0.7131966576205948,0.4531255443881297,-0.5341192940383248,-0.0272827476214296,-23.4375,97.8125,-125.125,0.98974609375,0.87548828125,0.23779296875
1969/12/31/18:00:08.843000,15,1731185434,726713131,RU_myo,0.7274923274330545,0.4601530880541822,-0.5074562639716768,-0.0387580860743342,-45.4375,121.6875,-137.625,1.0068359375,0.8525390625,0.27490234375
1969/12/31/18:00:08.863000,16,1731185434,746298156,RU_myo,0.7427879703111979,0.4650817036788273,-0.4789364998382884,-0.050841608814234,-59.25,131.0,-139.8125,0.9658203125,0.7998046875,0.3017578125
1969/12/31/18:00:08.887000,17,1731185434,770320419,RU_myo,0.7573618147398192,0.4702992249008951,-0.4488748215342223,-0.0610992244160669,-52.625,142.0625,-138.3125,0.99072265625,0.818359375,0.2333984375
1969/12/31/18:00:08.903000,18,1731185434,786798107,RU_myo,0.777350343891383,0.4669839416703024,-0.4152256901297957,-0.0723883093479255,-105.3125,164.3125,-129.6875,0.83837890625,0.599609375,0.46240234375
1969/12/31/18:00:08.923000,19,1731185434,806356453,RU_myo,0.8003486878537714,0.4581878746067461,-0.3778051077415424,-0.0822748441414538,-136.9375,191.3125,-119.5,0.7646484375,0.56396484375,0.44189453125
1969/12/31/18:00:08.945000,20,1731185434,828921425,RU_myo,0.8247178366468583,0.4448910828388802,-0.3377729801660534,-0.0884411001555134,-154.6875,214.6875,-99.0,0.736328125,0.54541015625,0.46826171875
1969/12/31/18:00:08.963000,21,1731185434,846822512,RU_myo,0.848126472937233,0.4291599302786387,-0.2973173119595007,-0.0900314176021891,-155.5,226.6875,-74.5625,0.72412109375,0.49072265625,0.48193359375
1969/12/31/18:00:08.986000,22,1731185434,869360103,RU_myo,0.8689561885206609,0.4119545740605465,-0.2592951593731222,-0.0893005692473817,-152.0625,216.0,-55.6875,0.6337890625,0.474609375,0.43994140625
1969/12/31/18:00:09.005000,23,1731185434,888767975,RU_myo,0.8880420503517866,0.3929016893335934,-0.2232770513565768,-0.0845986859431972,-149.75,212.625,-29.1875,0.623046875,0.41162109375,0.5048828125
1969/12/31/18:00:09.024000,24,1731185434,908106075,RU_myo,0.9047913278586098,0.3738428820246887,-0.1896985595645277,-0.0748906475500886,-136.3125,207.625,2.3125,0.49462890625,0.41748046875,0.58447265625
1969/12/31/18:00:09.044000,25,1731185434,927687038,RU_myo,0.918218189195092,0.3578511860709136,-0.158570250965757,-0.0606082598956877,-107.4375,202.0625,27.125,0.42333984375,0.42578125,0.63232421875
1969/12/31/18:00:09.065000,26,1731185434,948858334,RU_myo,0.9276102606919976,0.3475944489170237,-0.1301877014117667,-0.0420531299918927,-64.75,195.0625,49.0625,0.37939453125,0.3994140625,0.58349609375
1969/12/31/18:00:09.083000,27,1731185434,966845709,RU_myo,0.9327820797913632,0.3448644647834839,-0.1028489598513576,-0.0202035642200589,-15.1875,195.6875,61.6875,0.4267578125,0.47802734375,0.564453125
1969/12/31/18:00:09.104000,28,1731185434,987742020,RU_myo,0.9338734426884636,0.349378535029331,-0.076235812412934,0.001770086917514,32.4375,190.0625,59.75,0.3642578125,0.52783203125,0.66162109375
1969/12/31/18:00:09.125000,29,1731185435,8702242,RU_myo,0.9306016900010434,0.3615954618631891,-0.0518221720327224,0.0233169254611306,79.625,175.25,58.75,0.31982421875,0.74658203125,0.63818359375
1969/12/31/18:00:09.143000,30,1731185435,26622695,RU_myo,0.9251689058231988,0.3760615972010773,-0.0280779637579119,0.0430325314115824,92.4375,166.75,50.25,0.287109375,0.72705078125,0.35888671875
1969/12/31/18:00:09.164000,31,1731185435,47779637,RU_myo,0.9208086261004356,0.3852674034168069,-0.0037843122642335,0.0605489962277364,63.3125,166.5625,37.3125,0.2646484375,0.61669921875,0.29833984375
1969/12/31/18:00:09.185000,32,1731185435,68824773,RU_myo,0.9156901635983642,0.3938163535219734,0.0205087251679143,0.0774570602323906,62.9375,165.25,34.375,0.25048828125,0.650390625,0.45947265625
1969/12/31/18:00:09.204000,33,1731185435,87754967,RU_myo,0.906124831429434,0.4105487110942655,0.0428494194451642,0.0924741744436236,115.9375,146.75,32.6875,0.16748046875,0.77685546875,0.548828125
1969/12/31/18:00:09.224000,34,1731185435,107743467,RU_myo,0.8938914938963172,0.4311065634270869,0.0629905101878456,0.1055335194910708,139.4375,128.875,30.1875,0.10595703125,0.76513671875,0.34765625
1969/12/31/18:00:09.245000,35,1731185435,128634931,RU_myo,0.8844415934720827,0.4446012813561525,0.0818520480915157,0.1157281753777135,96.0,117.6875,14.8125,0.0615234375,0.70361328125,0.208984375
1969/12/31/18:00:09.263000,36,1731185435,146801919,RU_myo,0.875126298261737,0.4571263756491698,0.0989453671955273,0.1240937270256058,91.5625,104.375,10.4375,-0.00244140625,0.65283203125,0.2490234375
1969/12/31/18:00:09.285000,37,1731185435,168628303,RU_myo,0.863752533445659,0.4731686551671789,0.111944183897911,0.1323309654801914,112.375,81.75,23.9375,-0.0185546875,0.63818359375,0.21923828125
1969/12/31/18:00:09.306000,38,1731185435,189536310,RU_myo,0.8525872315351811,0.4890413014790858,0.1196967039691072,0.1400225593600877,105.0,54.625,34.625,0.00341796875,0.79638671875,0.15478515625
1969/12/31/18:00:09.322000,39,1731185435,205970925,RU_myo,0.8422677016212069,0.5036881711557504,0.1243350466122471,0.146369878142449,77.4375,36.1875,32.5,-0.0048828125,1.0205078125,0.17041015625
1969/12/31/18:00:09.343000,40,1731185435,226972560,RU_myo,0.8365424328764505,0.5109592634519349,0.1267784482367302,0.1518045261265036,29.1875,25.625,26.0625,-0.0224609375,1.09423828125,0.22216796875
1969/12/31/18:00:09.366000,41,1731185435,249585464,RU_myo,0.8346571815537789,0.5122453610939969,0.1273899033130566,0.1572383281909122,1.6875,20.0625,23.6875,-0.00732421875,0.97412109375,0.37646484375
1969/12/31/18:00:09.382000,42,1731185435,266038160,RU_myo,0.8339504261123679,0.5121626308650281,0.125919617146294,0.1623587889525652,-3.8125,11.5625,23.8125,0.041015625,0.974609375,0.47802734375
1969/12/31/18:00:09.405000,43,1731185435,288486789,RU_myo,0.8337285282769045,0.511565912254831,0.1254346676630089,0.1657202543576978,-4.5,9.9375,13.1875,0.021484375,0.9599609375,0.48876953125
1969/12/31/18:00:09.433000,44,1731185435,316989802,RU_myo,0.8330302929612531,0.5123429278368082,0.1258578886346793,0.166508399706792,2.25,5.375,1.0625,-0.00146484375,0.96826171875,0.42529296875
1969/12/31/18:00:09.442000,45,1731185435,326036369,RU_myo,0.8307605432928268,0.5159370268499203,0.1261003072840335,0.1665671532323947,25.5,1.125,1.0625,0.01513671875,0.90869140625,0.46435546875
1969/12/31/18:00:09.466000,46,1731185435,349937691,RU_myo,0.8264748454724379,0.5230474852919734,0.1256803328528618,0.1660274431082002,48.375,-5.875,4.8125,0.01025390625,0.9306640625,0.4619140625
1969/12/31/18:00:09.487000,47,1731185435,370873321,RU_myo,0.8214526095950195,0.5312768252277492,0.1266543442494921,0.1640707842615108,53.375,-5.75,-0.8125,-0.04296875,0.9326171875,0.36572265625
1969/12/31/18:00:09.502000,48,1731185435,385936339,RU_myo,0.8174337873265638,0.5381805333675562,0.1272662370501706,0.1611428613009355,44.1875,-9.375,-7.5,-0.02783203125,0.9248046875,0.33740234375
1969/12/31/18:00:09.524000,49,1731185435,408311262,RU_myo,0.8138473994926804,0.544599602360586,0.1259256870286806,0.1587652505872993,38.25,-15.1875,-3.875,0.041015625,0.98974609375,0.3515625
1969/12/31/18:00:09.546000,50,1731185435,429417837,RU_myo,0.8115574154218571,0.548667990916597,0.124577969680807,0.1575383340255575,33.125,-9.875,-1.8125,0.0498046875,0.9658203125,0.49267578125
1969/12/31/18:00:09.570000,51,1731185435,453503243,RU_myo,0.8095654543271045,0.5517961024743289,0.1249476351509902,0.1565660401379041,28.25,-1.375,-4.8125,0.0166015625,0.89453125,0.44482421875
1969/12/31/18:00:09.585000,52,1731185435,468483532,RU_myo,0.8076099039424376,0.5543581851413513,0.1270836535415429,0.15589416481513,23.875,7.375,-7.375,-0.01416015625,0.9013671875,0.39208984375
1969/12/31/18:00:09.606000,53,1731185435,489343874,RU_myo,0.8052166347337786,0.557157174185107,0.1300725173300244,0.1558306601330607,30.75,13.0,-5.0,-0.04541015625,0.9140625,0.4462890625
1969/12/31/18:00:09.622000,54,1731185435,505828565,RU_myo,0.8013107224188699,0.5618574954193859,0.133490748775904,0.1561969941095283,45.9375,15.5,-1.9375,-0.04052734375,0.81689453125,0.43017578125
1969/12/31/18:00:09.645000,55,1731185435,528408778,RU_myo,0.796178684021846,0.5680799610695585,0.137030139959295,0.1568674653431573,51.375,16.75,1.1875,-0.0361328125,0.7724609375,0.3134765625
1969/12/31/18:00:09.674000,56,1731185435,557088037,RU_myo,0.7906369050694911,0.5746202288523269,0.1397790868994931,0.1586401077955382,47.5625,16.875,9.0625,-0.03271484375,0.87451171875,0.25439453125
1969/12/31/18:00:09.682000,57,1731185435,565778000,RU_myo,0.7856071976418236,0.5804008113103956,0.1416668717059026,0.1608935259874016,42.375,14.875,13.125,-0.03173828125,0.9521484375,0.279296875
1969/12/31/18:00:09.705000,58,1731185435,588511510,RU_myo,0.7823025088345011,0.5838734336826744,0.1423977337216892,0.1637604455959246,26.4375,12.5,15.375,-0.02001953125,0.8876953125,0.27880859375
1969/12/31/18:00:09.726000,59,1731185435,609469088,RU_myo,0.7800703479486946,0.5862124899608187,0.1411207077040205,0.1671230526356436,13.1875,5.625,21.9375,0.00341796875,0.82763671875,0.22314453125
1969/12/31/18:00:09.742000,60,1731185435,625932032,RU_myo,0.7775226835383547,0.5890323360139051,0.1391092946917813,0.170727818013564,9.8125,2.375,27.4375,-0.0166015625,0.90966796875,0.15478515625
1969/12/31/18:00:09.765000,61,1731185435,648553845,RU_myo,0.7744989733315685,0.5925475634882865,0.1381878537018418,0.1730400023165731,14.875,1.625,21.9375,-0.05029296875,1.03515625,0.1572265625
1969/12/31/18:00:09.785000,62,1731185435,669382714,RU_myo,0.7715703122588682,0.5962106486942983,0.1384322022152609,0.1733454384000621,21.5,0.875,5.9375,-0.001953125,1.08056640625,0.21484375
1969/12/31/18:00:09.802000,63,1731185435,685811948,RU_myo,0.7696992839242127,0.5983023299782024,0.1399619712956558,0.1732281179838949,16.4375,6.4375,-4.5625,0.0234375,1.0263671875,0.24609375
1969/12/31/18:00:09.825000,64,1731185435,708556976,RU_myo,0.7684576249525406,0.5995068143196072,0.141850319331986,0.1730402991851034,10.5,7.125,-3.625,-0.03125,0.98193359375,0.22900390625
1969/12/31/18:00:09.847000,65,1731185435,730975174,RU_myo,0.7670104532330743,0.6011687055461203,0.1433795602932111,0.1724339113785958,11.5,3.0,-0.3125,-0.0849609375,0.92041015625,0.185546875
1969/12/31/18:00:09.862000,66,1731185435,745879339,RU_myo,0.7650433799145246,0.6038434783384707,0.1444756406779703,0.170904855892825,18.1875,-2.6875,-2.125,-0.076171875,0.89453125,0.16943359375
1969/12/31/18:00:09.885000,67,1731185435,768534257,RU_myo,0.7627381282325797,0.6069676654245176,0.1451497494347851,0.169565182476801,24.875,-3.0625,-3.1875,-0.017578125,0.92578125,0.23046875
1969/12/31/18:00:09.907000,68,1731185435,790672307,RU_myo,0.7604700009711166,0.6098287005138796,0.1461245029556829,0.1686474526593784,27.25,0.625,-4.375,0.00439453125,0.958984375,0.2822265625
1969/12/31/18:00:09.922000,69,1731185435,806032989,RU_myo,0.7585228854546691,0.6120920170064715,0.1474074811598154,0.168099462987218,17.75,3.0,-2.875,-0.0234375,0.9833984375,0.20166015625
1969/12/31/18:00:09.952000,70,1731185435,836016441,RU_myo,0.7577248538453084,0.6128818477090979,0.1485052818918668,0.1678543054675848,6.125,3.125,-1.3125,-0.05029296875,0.9833984375,0.18994140625
1969/12/31/18:00:09.965000,71,1731185435,849326736,RU_myo,0.7567461564280801,0.614345060852446,0.148687984921665,0.166755162071424,9.4375,-3.75,-2.125,-0.03369140625,0.9462890625,0.17236328125
1969/12/31/18:00:09.990000,72,1731185435,873382558,RU_myo,0.755664844590672,0.6161903559081449,0.1483862065589599,0.1651109373681557,8.0625,-8.0625,-3.875,-0.017578125,0.9619140625,0.11962890625
1969/12/31/18:00:10.005000,73,1731185435,888323770,RU_myo,0.7551511269714634,0.6173903693272189,0.1483812148130963,0.1629690841427261,2.8125,-9.25,-3.8125,-0.08056640625,1.01025390625,0.115234375
1969/12/31/18:00:10.025000,74,1731185435,909305678,RU_myo,0.7555764430416128,0.6173887811104218,0.1486860178729597,0.1607102976434741,-1.8125,-8.25,-5.9375,-0.1044921875,0.9833984375,0.1552734375
1969/12/31/18:00:10.042000,75,1731185435,925702366,RU_myo,0.7545626592234427,0.619239457840303,0.1487517554220619,0.1582738210132977,19.25,-10.0,-2.875,-0.10400390625,0.7939453125,0.2353515625
1969/12/31/18:00:10.065000,76,1731185435,948396965,RU_myo,0.751065869956927,0.6242300408004464,0.1488093125522135,0.1552182452093023,35.75,-13.0,-2.3125,-0.0791015625,0.84765625,0.138671875
1969/12/31/18:00:10.093000,77,1731185435,977035322,RU_myo,0.7480996006021507,0.6282791440109283,0.1497297911453227,0.152293448392817,27.4375,-8.5,-5.0,-0.1015625,1.01513671875,0.115234375
1969/12/31/18:00:10.108000,78,1731185435,991906966,RU_myo,0.7469157154523095,0.6302730798202621,0.1505184403289527,0.1490535406663839,14.4375,-9.9375,-9.375,-0.11279296875,1.181640625,0.16748046875
1969/12/31/18:00:10.132000,79,1731185436,15947387,RU_myo,0.7481486986599801,0.629734039656932,0.1506429785667643,0.1449663995527007,0.875,-15.3125,-15.8125,-0.1044921875,1.2177734375,0.25732421875
1969/12/31/18:00:10.154000,80,1731185436,38332879,RU_myo,0.7525735890536521,0.6254356502054155,0.1512471495275709,0.139955493892946,-22.3125,-15.375,-30.375,-0.07373046875,1.16357421875,0.306640625
1969/12/31/18:00:10.177000,81,1731185436,61058456,RU_myo,0.7586541142975627,0.6186916165838037,0.1525975770974259,0.1355676874933531,-36.75,-8.9375,-36.8125,-0.0361328125,1.0546875,0.3349609375
1969/12/31/18:00:10.184000,82,1731185436,68242044,RU_myo,0.7645692045267172,0.6115454941843509,0.154915906202204,0.1320874787319029,-39.75,-0.8125,-36.5625,-0.04638671875,1.0458984375,0.32958984375
1969/12/31/18:00:10.207000,83,1731185436,90866810,RU_myo,0.7701217839520165,0.6040972731848384,0.1592492458057233,0.1289131495368676,-36.0,9.6875,-41.25,-0.0791015625,1.03759765625,0.37646484375
1969/12/31/18:00:10.221000,84,1731185436,105131336,RU_myo,0.7743743720462344,0.5975506504557921,0.1654098327615114,0.1261631455048133,-27.0,20.125,-44.75,-0.0751953125,0.9853515625,0.3759765625
1969/12/31/18:00:10.244000,85,1731185436,128142982,RU_myo,0.7774735144101484,0.5916196243662717,0.1730363803856783,0.1248181297667415,-18.5625,32.125,-41.0,-0.10107421875,0.9033203125,0.39697265625
1969/12/31/18:00:10.266000,86,1731185436,149402047,RU_myo,0.7788984933358787,0.5870578880106953,0.1818915061625984,0.1248825575868041,-8.3125,42.75,-34.375,-0.138671875,0.8896484375,0.384765625
1969/12/31/18:00:10.281000,87,1731185436,165254967,RU_myo,0.779748739581147,0.5825379233317,0.1915954045827961,0.1262246883329794,-8.125,51.0,-30.0625,-0.1748046875,0.912109375,0.37548828125
1969/12/31/18:00:10.305000,88,1731185436,188474799,RU_myo,0.7802145081966944,0.5778665896650059,0.2022868784356004,0.128123161688692,-7.1875,58.25,-31.4375,-0.1708984375,0.857421875,0.36572265625
1969/12/31/18:00:10.329000,89,1731185436,212384797,RU_myo,0.7792219988453662,0.5746808020624411,0.2135139081905915,0.1302569125439457,2.5,62.125,-30.3125,-0.15966796875,0.78125,0.32080078125
1969/12/31/18:00:10.341000,90,1731185436,225175251,RU_myo,0.7773106951258101,0.5722862251668313,0.2241901989161445,0.1342211400535262,4.375,65.6875,-18.125,-0.177734375,0.80029296875,0.2890625
1969/12/31/18:00:10.373000,91,1731185436,256602015,RU_myo,0.7758860080541646,0.5685924132660328,0.2347618273130609,0.1399659048436944,-7.5625,70.8125,-10.875,-0.20458984375,0.82470703125,0.263671875
1969/12/31/18:00:10.387000,92,1731185436,270896456,RU_myo,0.7753228249043842,0.5632718491747486,0.2451953855802953,0.1465556686030094,-21.75,72.4375,-9.75,-0.21728515625,0.8330078125,0.2265625
1969/12/31/18:00:10.402000,93,1731185436,285331328,RU_myo,0.7754338356200399,0.5566716452184165,0.255263247840287,0.1538171651261414,-28.875,72.875,-5.1875,-0.26416015625,0.8115234375,0.25
1969/12/31/18:00:10.424000,94,1731185436,308334860,RU_myo,0.7751794157409586,0.5505604984238934,0.2644155298417191,0.1614448468216406,-28.1875,69.5,1.875,-0.2900390625,0.83349609375,0.2431640625
1969/12/31/18:00:10.447000,95,1731185436,330906943,RU_myo,0.7752405314727518,0.5440295139765875,0.2721673513768208,0.1701732620853501,-33.625,68.5625,2.9375,-0.20361328125,0.87646484375,0.2666015625
1969/12/31/18:00:10.468000,96,1731185436,352117936,RU_myo,0.7761742681438761,0.5358019601892847,0.2796815426734225,0.1795772803459644,-45.4375,70.4375,2.1875,-0.20068359375,0.91796875,0.2900390625
1969/12/31/18:00:10.485000,97,1731185436,368482229,RU_myo,0.7770889540348358,0.5270727451174932,0.2869448725879949,0.1897095647741944,-51.125,70.875,7.5625,-0.24951171875,0.95361328125,0.2744140625
1969/12/31/18:00:10.507000,98,1731185436,390826890,RU_myo,0.7781814173002791,0.5187672653255214,0.2920698158115801,0.2000235708285367,-54.4375,62.875,8.0,-0.125,0.89306640625,0.244140625
1969/12/31/18:00:10.528000,99,1731185436,411909263,RU_myo,0.7792603166272837,0.5110023788520106,0.2963960286317921,0.2092350877573688,-43.25,55.8125,10.875,-0.12158203125,0.63037109375,0.283203125
1969/12/31/18:00:10.544000,100,1731185436,428306041,RU_myo,0.7772079628251264,0.5078434187312536,0.2996398248259283,0.2196789019247333,-21.0,53.4375,31.3125,-0.1259765625,0.62744140625,0.22314453125
1969/12/31/18:00:10.567000,101,1731185436,450956308,RU_myo,0.7731688844587113,0.5078365136730464,0.3024435006310029,0.229869268088064,-7.5,49.625,37.1875,-0.1328125,0.8427734375,0.197265625
1969/12/31/18:00:10.588000,102,1731185436,471843850,RU_myo,0.7681124081643228,0.5096740788439363,0.305316136811661,0.2387838319086801,12.8125,45.4375,40.3125,-0.19482421875,0.85400390625,0.294921875
1969/12/31/18:00:10.605000,103,1731185436,488354054,RU_myo,0.7629877831495091,0.5126667512538182,0.3073314790526222,0.2461093393327056,14.6875,35.4375,34.9375,-0.13623046875,0.8046875,0.19287109375
1969/12/31/18:00:10.627000,104,1731185436,510969297,RU_myo,0.7591414366114673,0.5132765410039261,0.3083687816805606,0.2552648940989914,-6.6875,37.875,36.625,-0.08056640625,0.8486328125,0.16552734375
1969/12/31/18:00:10.650000,105,1731185436,533426306,RU_myo,0.756521785903692,0.513096831717479,0.3069669244238879,0.2649108077151866,-16.375,28.0,44.5,-0.11572265625,0.9404296875,0.2265625
1969/12/31/18:00:10.665000,106,1731185436,548551776,RU_myo,0.7536372443348697,0.5132692627854474,0.3051904285797642,0.2746713857217877,-7.8125,29.5,41.375,0.0048828125,0.82763671875,0.294921875
1969/12/31/18:00:10.687000,107,1731185436,571073384,RU_myo,0.7509580119362619,0.5121749718082722,0.304399545275635,0.2847451130360612,-19.375,34.5625,40.0625,-0.037109375,0.90576171875,0.22607421875
1969/12/31/18:00:10.708000,108,1731185436,591999940,RU_myo,0.7500909781467415,0.5097859752202445,0.3021360844516536,0.2935908214570613,-41.5,20.4375,37.4375,-0.09521484375,1.01171875,0.09912109375
1969/12/31/18:00:10.725000,109,1731185436,608919798,RU_myo,0.7486466364112777,0.5103493295584748,0.2966508481825364,0.3017781467930988,-21.125,2.625,50.25,-0.07763671875,0.96337890625,0.24462890625
1969/12/31/18:00:10.747000,110,1731185436,631074720,RU_myo,0.7461751635552274,0.5120989466035467,0.2923663831026208,0.3090294358347744,-0.0625,7.5,41.6875,0.03759765625,0.80419921875,0.33203125
1969/12/31/18:00:10.768000,111,1731185436,651876382,RU_myo,0.7433375715208967,0.5138295021401633,0.2897539375931759,0.3153904772580451,-13.0,8.6875,38.875,-0.05517578125,0.97802734375,0.111328125
1969/12/31/18:00:10.791000,112,1731185436,674438731,RU_myo,0.7414838819703393,0.5156450308598474,0.2858387404730901,0.3203249434129355,-19.1875,-2.1875,32.375,-0.02197265625,1.2265625,0.1416015625
1969/12/31/18:00:10.807000,113,1731185436,690833337,RU_myo,0.7417286068606376,0.5147909043994913,0.2821767074980849,0.3243536715649628,-19.5,-0.25,19.3125,-0.0029296875,1.1513671875,0.349609375
1969/12/31/18:00:10.828000,114,1731185436,711845175,RU_myo,0.7435809145331356,0.511936720586883,0.2777899147956247,0.3283915055153726,-34.75,-3.125,16.5625,0.00244140625,0.93408203125,0.28271484375
1969/12/31/18:00:10.845000,115,1731185436,728509234,RU_myo,0.744969007679236,0.5103999051383672,0.2730230537770768,0.3316195508989176,-31.125,-8.6875,17.0625,0.01513671875,0.99853515625,0.25244140625
1969/12/31/18:00:10.867000,116,1731185436,750885171,RU_myo,0.7452103778176892,0.5102759241998428,0.2689935404244865,0.3345481268587725,-10.5,-6.75,18.4375,0.0126953125,1.005859375,0.40185546875
1969/12/31/18:00:10.888000,117,1731185436,771728688,RU_myo,0.7425831799368808,0.5136312230123995,0.2678939320025456,0.3361339447568964,24.0625,-1.1875,17.8125,-0.01708984375,0.869140625,0.40283203125
1969/12/31/18:00:10.905000,118,1731185436,788358859,RU_myo,0.7378448190386023,0.5200560769530851,0.2676579691830138,0.3368767005521216,38.0,-2.4375,18.4375,0.0263671875,0.93408203125,0.28564453125
1969/12/31/18:00:10.927000,119,1731185436,810975583,RU_myo,0.7337792364804576,0.5249564456976903,0.2674836215171254,0.3382917002391395,27.0,2.125,15.375,0.05224609375,1.076171875,0.2978515625
1969/12/31/18:00:10.948000,120,1731185436,831934514,RU_myo,0.731921253541597,0.5263411699849213,0.266924496850755,0.3405988320208583,6.1875,5.8125,13.75,0.0107421875,1.08935546875,0.34228515625
1969/12/31/18:00:10.965000,121,1731185436,849095241,RU_myo,0.7319786724151778,0.5258502554083353,0.2651530481130363,0.3426114316432949,-9.5625,-0.5625,12.875,-0.02783203125,0.974609375,0.298828125
1969/12/31/18:00:10.987000,122,1731185436,870736385,RU_myo,0.7325874648493009,0.5244452172958834,0.2633213067288688,0.3448691198465714,-16.4375,1.1875,10.8125,-0.01171875,0.93798828125,0.28125
1969/12/31/18:00:11.008000,123,1731185436,891857426,RU_myo,0.732405562796138,0.5242019312687085,0.262467198935194,0.3462735859440362,-7.0,1.375,7.5,-0.00830078125,1.01025390625,0.29443359375
1969/12/31/18:00:11.025000,124,1731185436,908406386,RU_myo,0.7317394799594428,0.5249382322031372,0.2622859981135907,0.3467033905713743,5.4375,-0.5625,7.375,-0.06005859375,0.9248046875,0.326171875
1969/12/31/18:00:11.047000,125,1731185436,931004617,RU_myo,0.7295280022770292,0.5282241743394754,0.26234198073851,0.3463304789926258,20.1875,-3.9375,6.75,-0.0068359375,0.8896484375,0.26953125
1969/12/31/18:00:11.068000,126,1731185436,951799290,RU_myo,0.7268451872432063,0.5317054439096045,0.263075475060314,0.3460876899285337,26.125,0.0,5.5,0.01611328125,0.92333984375,0.3125
1969/12/31/18:00:11.084000,127,1731185436,967791169,RU_myo,0.7234899031609728,0.5356742925960262,0.2649072960194569,0.3456002557746923,31.625,3.9375,2.3125,0.0224609375,1.09033203125,0.330078125
1969/12/31/18:00:11.107000,128,1731185436,990903268,RU_myo,0.7222071828524418,0.5365891940885579,0.2671043468696996,0.3451725506280053,17.3125,7.6875,-3.6875,-0.029296875,1.02734375,0.36669921875
1969/12/31/18:00:11.128000,129,1731185437,11909787,RU_myo,0.721483384769431,0.5373891471666726,0.2678400247350476,0.344871499487926,7.0,1.5,0.1875,-0.03076171875,0.923828125,0.265625
1969/12/31/18:00:11.144000,130,1731185437,27488399,RU_myo,0.721533286525435,0.5379912348731228,0.2667372017694062,0.3446830614168963,-5.0,-6.125,2.0625,0.005859375,0.94091796875,0.1904296875
1969/12/31/18:00:11.175000,131,1731185437,58459275,RU_myo,0.7225152649346497,0.5372017273540468,0.2650300988718636,0.345173931165451,-16.5,-4.625,1.375,0.02880859375,0.96533203125,0.19482421875
1969/12/31/18:00:11.188000,132,1731185437,71803249,RU_myo,0.7239665256469986,0.5353604583466677,0.2639264190959971,0.3458388276128399,-15.0625,-0.9375,-0.625,0.0048828125,0.91015625,0.2783203125
1969/12/31/18:00:11.204000,133,1731185437,88338210,RU_myo,0.7235180971420362,0.5358172493641098,0.264124087263443,0.3459189282463443,7.25,1.0,0.9375,-0.0068359375,0.89208984375,0.3212890625
1969/12/31/18:00:11.227000,134,1731185437,110890792,RU_myo,0.7216409738275213,0.5384688041196306,0.2645345496547811,0.3454086332479018,21.625,-2.25,4.0,-0.005859375,0.88623046875,0.30859375
1969/12/31/18:00:11.248000,135,1731185437,131847595,RU_myo,0.7188313576887863,0.5423737322257413,0.2650831779266705,0.3447363087565818,27.6875,-3.4375,7.5,-0.01220703125,0.90869140625,0.267578125
1969/12/31/18:00:11.278000,136,1731185437,162040138,RU_myo,0.716407058809962,0.5454996919642695,0.2662492622074682,0.3439510757769563,25.0,-0.3125,3.625,-0.02197265625,0.998046875,0.29052734375
1969/12/31/18:00:11.287000,137,1731185437,170906490,RU_myo,0.7151247673193344,0.5465369722240799,0.2679581536814508,0.3436456503932957,14.25,5.5625,-1.3125,-0.02490234375,1.04345703125,0.31005859375
1969/12/31/18:00:11.310000,138,1731185437,193533958,RU_myo,0.7155026464770088,0.5458133991466825,0.2685729094436818,0.3435291668975094,-4.0625,3.75,-7.125,0.0283203125,1.02197265625,0.25390625
1969/12/31/18:00:11.324000,139,1731185437,207812916,RU_myo,0.7171477977686246,0.5436137787835025,0.2674731168458688,0.3444433588227379,-21.25,0.875,-2.6875,0.04248046875,0.9541015625,0.21240234375
1969/12/31/18:00:11.347000,140,1731185437,230994335,RU_myo,0.7184803709932129,0.5418358893302821,0.2662485241927104,0.3454150386076452,-14.8125,-0.1875,1.5,0.00341796875,0.92626953125,0.271484375
1969/12/31/18:00:11.377000,141,1731185437,260971487,RU_myo,0.7184490032660689,0.5417972262523048,0.2660763980659978,0.3456734669070304,3.5625,0.1875,1.0,-0.00244140625,0.9052734375,0.3173828125
1969/12/31/18:00:11.391000,142,1731185437,274521499,RU_myo,0.7164982184461725,0.5447290936627741,0.2674812739164361,0.3440265768582917,22.9375,-2.0,-3.625,0.00341796875,0.970703125,0.259765625
1969/12/31/18:00:11.407000,143,1731185437,290987182,RU_myo,0.7144035278843093,0.5480104984061286,0.2688169118935832,0.3421250661134273,21.9375,-3.5,-3.875,0.00732421875,1.01416015625,0.21337890625
1969/12/31/18:00:11.430000,144,1731185437,313501889,RU_myo,0.7134193242777557,0.549652722032956,0.2689361347337262,0.3414500085566192,7.625,-3.125,0.1875,0.00439453125,0.96923828125,0.2021484375
1969/12/31/18:00:11.451000,145,1731185437,334545656,RU_myo,0.7140967179347534,0.5495962773129771,0.2680227958331055,0.3408424714033389,-4.3125,-6.25,-2.0,0.0078125,0.91650390625,0.22265625
1969/12/31/18:00:11.467000,146,1731185437,351086991,RU_myo,0.7143975191302971,0.549837051634118,0.2673497209322198,0.3403520648214744,-0.9375,-4.625,-2.625,0.0263671875,0.8798828125,0.22509765625
1969/12/31/18:00:11.490000,147,1731185437,373439166,RU_myo,0.7138729565361953,0.5508938377716257,0.2668706768684263,0.3401197190098059,3.8125,-3.5,1.5625,0.0205078125,0.94580078125,0.2216796875
1969/12/31/18:00:11.504000,148,1731185437,387616241,RU_myo,0.7135240637269575,0.5517756660471939,0.2656946321132118,0.3403430435707028,1.0,-4.1875,1.875,0.06640625,0.99658203125,0.24072265625
1969/12/31/18:00:11.528000,149,1731185437,411410821,RU_myo,0.7142729481039538,0.5508727872703968,0.2640527066738766,0.3415106088396532,-12.8125,-1.1875,2.25,0.06689453125,0.97509765625,0.2314453125
1969/12/31/18:00:11.550000,150,1731185437,433621663,RU_myo,0.7157809149176794,0.5490888642107482,0.2617876988216873,0.3429669106269669,-24.375,-2.625,4.3125,0.04736328125,1.03125,0.19482421875
1969/12/31/18:00:11.580000,151,1731185437,463493021,RU_myo,0.7191609141692252,0.5453219832955236,0.2584389161935579,0.3444427973737004,-38.375,-6.0625,2.5625,0.03173828125,1.01220703125,0.23046875
1969/12/31/18:00:11.587000,152,1731185437,470979924,RU_myo,0.7233661672656304,0.5407392520298895,0.2543470440465684,0.3459046552944332,-48.5625,-8.4375,-0.1875,0.06640625,0.95068359375,0.1943359375
1969/12/31/18:00:11.610000,153,1731185437,493328810,RU_myo,0.727863426482048,0.5364521304277334,0.2493962231115847,0.3467498638024751,-55.5625,-13.8125,-3.25,0.10546875,1.01611328125,0.1279296875
1969/12/31/18:00:11.631000,154,1731185437,514843564,RU_myo,0.7337947705780653,0.5309666203009973,0.2440285720155635,0.3465108062362066,-68.875,-19.25,-8.3125,0.076171875,1.1953125,0.140625
1969/12/31/18:00:11.647000,155,1731185437,530936152,RU_myo,0.7420952539312639,0.5234585374004375,0.2379246010712342,0.3444962669179185,-82.6875,-28.0,-17.9375,0.021484375,1.2119140625,0.18896484375
1969/12/31/18:00:11.669000,156,1731185437,553301939,RU_myo,0.7522918811533768,0.515342827795372,0.2311504546797434,0.3391875037378754,-88.4375,-41.0625,-36.8125,0.052734375,1.044921875,0.1416015625
1969/12/31/18:00:11.690000,157,1731185437,574288162,RU_myo,0.7625039809239942,0.5085191054337012,0.2238314199526326,0.3315048927632254,-82.8125,-51.75,-48.0,0.10595703125,0.89697265625,0.07666015625
1969/12/31/18:00:11.707000,158,1731185437,590970045,RU_myo,0.7710436500324048,0.5054022658540462,0.2161998581708975,0.3214309579694936,-59.5,-64.25,-50.1875,0.11572265625,0.93310546875,0.09521484375
1969/12/31/18:00:11.729000,159,1731185437,613347599,RU_myo,0.7768446224728404,0.5072959579925965,0.2093030730305154,0.3087968056171996,-21.5,-75.4375,-50.375,0.0771484375,1.03466796875,0.20458984375
1969/12/31/18:00:11.758000,160,1731185437,642015020,RU_myo,0.7818882592212618,0.5116759779119311,0.2031932876617939,0.2924909085236757,5.1875,-85.8125,-65.1875,0.08251953125,0.91259765625,0.2578125
1969/12/31/18:00:11.767000,161,1731185437,650922614,RU_myo,0.78641618475993,0.5170546026933691,0.1972144282023699,0.2744277527693764,12.9375,-90.625,-73.25,0.10693359375,0.77197265625,0.18359375
1969/12/31/18:00:11.790000,162,1731185437,673465259,RU_myo,0.7895055269235416,0.5246686903312534,0.1905555666838266,0.2551320527669427,22.5625,-99.6875,-71.75,0.09326171875,0.818359375,0.11669921875
1969/12/31/18:00:11.811000,163,1731185437,694555977,RU_myo,0.7918485536934978,0.5335959343550881,0.182443176365518,0.2344477217865355,40.75,-113.875,-64.75,0.087890625,0.89306640625,0.15283203125
1969/12/31/18:00:11.833000,164,1731185437,716889678,RU_myo,0.7934466988820295,0.5441021519989546,0.1717028666786021,0.2119276050864225,49.5,-132.625,-63.1875,0.11279296875,0.9296875,0.1923828125
1969/12/31/18:00:11.849000,165,1731185437,733437357,RU_myo,0.796607961706721,0.5520894194802921,0.1588210800981448,0.1881193577488402,32.75,-144.5625,-66.9375,0.12890625,0.8896484375,0.2158203125
1969/12/31/18:00:11.872000,166,1731185437,755834043,RU_myo,0.8018109541032555,0.5564944022959334,0.1435031632990829,0.1637681782779411,8.3125,-155.25,-67.75,0.162109375,0.83154296875,0.23095703125
1969/12/31/18:00:11.895000,167,1731185437,778413944,RU_myo,0.8076061412369171,0.5592387171047263,0.1258012438280769,0.1385583811206863,-1.875,-168.3125,-66.0625,0.16455078125,0.79248046875,0.2802734375
1969/12/31/18:00:11.910000,168,1731185437,793450157,RU_myo,0.8131887784849885,0.5611692283563,0.1049827140279351,0.1131005634266069,-7.1875,-182.0625,-57.5,0.18896484375,0.7587890625,0.28125
1969/12/31/18:00:11.930000,169,1731185437,814337696,RU_myo,0.8193131607793069,0.5606340893807594,0.0809974345790166,0.088627185387138,-23.4375,-192.1875,-45.625,0.2314453125,0.68017578125,0.2275390625
1969/12/31/18:00:11.948000,170,1731185437,831836844,RU_myo,0.825371996796691,0.5582644788272841,0.0541417660966325,0.0645794684670092,-31.75,-203.6875,-34.8125,0.23876953125,0.6474609375,0.33642578125
1969/12/31/18:00:11.969000,171,1731185437,853510205,RU_myo,0.8310834686670523,0.5539742627513342,0.0246590570902973,0.04248193993774,-41.125,-208.6875,-17.8125,0.25244140625,0.59765625,0.3193359375
1969/12/31/18:00:11.990000,172,1731185437,874392436,RU_myo,0.8371493675723627,0.5464207902667,-0.0070805196236525,0.0235610394373264,-58.75,-208.3125,3.375,0.33544921875,0.587890625,0.3681640625
1969/12/31/18:00:12.006000,173,1731185437,890276490,RU_myo,0.8437820657506853,0.5350545130476351,-0.041444446082517,0.0055544102997187,-78.4375,-217.625,15.5,0.380859375,0.63623046875,0.41943359375
1969/12/31/18:00:12.037000,174,1731185437,921042395,RU_myo,0.8506974293121852,0.5198062214266033,-0.0773361299374713,-0.0115973675517912,-99.1875,-221.875,25.8125,0.39697265625,0.6376953125,0.39208984375
1969/12/31/18:00:12.051000,175,1731185437,934420910,RU_myo,0.8575702716272176,0.5008088312242932,-0.1138340609668868,-0.0283822189542104,-114.875,-224.1875,30.4375,0.46240234375,0.5400390625,0.49267578125
1969/12/31/18:00:12.067000,176,1731185437,950760105,RU_myo,0.862770365085539,0.4807343045924092,-0.1508245894677302,-0.0421161338457037,-113.1875,-219.25,47.25,0.50341796875,0.484375,0.5029296875
1969/12/31/18:00:12.097000,177,1731185437,980989129,RU_myo,0.8656110242000958,0.460393735406947,-0.1893943737197078,-0.0537115851992726,-104.75,-223.3125,61.875,0.56396484375,0.53662109375,0.64013671875
1969/12/31/18:00:12.111000,178,1731185437,994541557,RU_myo,0.8655677993984694,0.4416037676220242,-0.2267530057658355,-0.0660421944114761,-91.0625,-222.3125,53.3125,0.55224609375,0.48193359375,0.5986328125
1969/12/31/18:00:12.126000,179,1731185438,10312990,RU_myo,0.8555554695324658,0.4306159547372152,-0.2770468913610517,-0.076418309756342,-18.5625,-290.5,78.0625,0.73388671875,0.1787109375,0.46435546875
1969/12/31/18:00:12.149000,180,1731185438,33299980,RU_myo,0.8441317707393203,0.4232255747148552,-0.3186093885219994,-0.0825210523528243,7.125,-240.8125,73.25,0.74072265625,0.43212890625,0.72216796875
1969/12/31/18:00:12.172000,181,1731185438,55935783,RU_myo,0.8278526678378645,0.4195723098663629,-0.3623190618805252,-0.0856967592453263,41.5625,-250.4375,83.5625,0.88330078125,0.5771484375,0.634765625
1969/12/31/18:00:12.186000,182,1731185438,70295875,RU_myo,0.8105029748864608,0.4148036913418471,-0.4040612767338181,-0.0880755924965105,38.0625,-243.0,86.4375,0.86572265625,0.6728515625,0.5595703125
1969/12/31/18:00:12.210000,183,1731185438,94129588,RU_myo,0.7939731249960403,0.4066914923007854,-0.4430697197375658,-0.0888703005838126,23.5625,-227.1875,94.75,0.91943359375,0.6181640625,0.548828125
1969/12/31/18:00:12.231000,184,1731185438,114585106,RU_myo,0.7775553254128501,0.3975365283314147,-0.4793266324253953,-0.0872834692943226,24.0625,-211.0,102.875,0.904296875,0.60107421875,0.5869140625
1969/12/31/18:00:12.246000,185,1731185438,130371848,RU_myo,0.7595924362878118,0.3897755964752082,-0.5136175453083115,-0.0853892983822136,33.3125,-205.375,94.4375,0.921875,0.515625,0.5068359375
1969/12/31/18:00:12.254000,186,1731185438,137902655,RU_myo,0.7420769672181413,0.3815366937062511,-0.5450524195803588,-0.0816663087792295,34.3125,-188.1875,97.3125,0.9833984375,0.46337890625,0.46435546875
1969/12/31/18:00:12.254000,1,1731185445,150976386,RU_myo,0.6768668100905065,0.382438902797756,-0.6262086087942829,0.0587757202991125,-7.75,3.5,3.9375,0.95458984375,0.4423828125,-0.07958984375
1969/12/31/18:00:12.276000,2,1731185445,173108362,RU_myo,0.6778633215695125,0.3808022027077424,-0.6261049840320599,0.0590215948098071,-8.3125,5.4375,2.375,0.9541015625,0.40966796875,-0.08740234375
1969/12/31/18:00:12.291000,3,1731185445,187619829,RU_myo,0.6780531859692172,0.3804397792912171,-0.6260501870993123,0.0597546195934704,0.125,3.8125,-0.0625,0.94091796875,0.400390625,-0.09765625
1969/12/31/18:00:12.315000,4,1731185445,211683529,RU_myo,0.6773754643566099,0.3814128020151788,-0.6260443447383085,0.0612799573088877,9.5,2.125,-0.125,0.92724609375,0.4140625,-0.0986328125
1969/12/31/18:00:12.337000,5,1731185445,233844035,RU_myo,0.6763875750298511,0.3834205690613179,-0.625728696914459,0.0628658366974144,15.4375,1.375,-1.0625,0.90283203125,0.4482421875,-0.0947265625
1969/12/31/18:00:12.351000,6,1731185445,247876299,RU_myo,0.6753209320737771,0.385452972346882,-0.6255141822028261,0.0640285301649848,14.0,-0.0625,-1.375,0.89990234375,0.46728515625,-0.1005859375
1969/12/31/18:00:12.382000,7,1731185445,278308605,RU_myo,0.6745233208733169,0.3870986246474143,-0.6253272484252224,0.0643333255090467,8.625,-0.4375,-2.8125,0.8984375,0.47705078125,-0.1064453125
1969/12/31/18:00:12.397000,8,1731185445,293552218,RU_myo,0.6741998928539839,0.3883699002561922,-0.6249441157823593,0.0637822639898979,3.25,-0.375,-6.5,0.8935546875,0.45751953125,-0.10205078125
1969/12/31/18:00:12.417000,9,1731185445,314227185,RU_myo,0.6742135490105651,0.3891712464685282,-0.6245295159764713,0.0628069655922389,-0.8125,-0.1875,-8.3125,0.890625,0.43701171875,-0.09619140625
1969/12/31/18:00:12.434000,10,1731185445,331023499,RU_myo,0.6744007701302407,0.3894177675292729,-0.6242891733995929,0.0616476403141952,-4.0,-0.75,-7.125,0.880859375,0.4248046875,-0.0859375
1969/12/31/18:00:12.457000,11,1731185445,353423358,RU_myo,0.6745346873356174,0.3894856429181589,-0.6242390957724513,0.0602448408651031,-5.3125,-1.6875,-7.125,0.87939453125,0.4248046875,-0.09326171875
1969/12/31/18:00:12.480000,12,1731185445,376536638,RU_myo,0.6746368663407079,0.3899014115791587,-0.6240375754516779,0.0584730044290598,-5.25,-2.8125,-9.4375,0.8720703125,0.43994140625,-0.0888671875
1969/12/31/18:00:12.494000,13,1731185445,390767646,RU_myo,0.6736967763310999,0.3914741006874139,-0.6243200149565883,0.0557243302038679,-1.9375,-10.25,-12.8125,0.8564453125,0.48291015625,-0.09375
1969/12/31/18:00:12.517000,14,1731185445,413436082,RU_myo,0.6720598191974043,0.3952036444739981,-0.6240860640535336,0.0516358738571432,3.0625,-13.5625,-23.75,0.89013671875,0.55517578125,-0.12353515625
1969/12/31/18:00:12.562000,15,1731185445,459012730,RU_myo,0.6702449060423875,0.4007675123462632,-0.6229413997876885,0.0458386234803599,4.6875,-14.5,-36.3125,0.93212890625,0.64501953125,-0.14111328125
1969/12/31/18:00:12.565000,16,1731185445,461363930,RU_myo,0.6692010904023485,0.4069894993435662,-0.6204941887112618,0.0389411068658061,3.625,-12.125,-44.6875,0.98974609375,0.7216796875,-0.10986328125
1969/12/31/18:00:12.577000,17,1731185445,473921587,RU_myo,0.6705174205894403,0.4133819852223083,-0.615281823863294,0.030822073311275,-1.875,-0.75,-53.0625,0.9970703125,0.82666015625,-0.03515625
1969/12/31/18:00:12.598000,18,1731185445,494407956,RU_myo,0.6745217364496848,0.421339566257549,-0.6058549231743346,0.0208136740683506,-5.3125,16.25,-74.5,0.98046875,0.8935546875,0.04248046875
1969/12/31/18:00:12.614000,19,1731185445,510208850,RU_myo,0.6802101352873401,0.4312961966924215,-0.5926202623389074,0.0099492329551181,-1.8125,31.0625,-97.9375,0.98095703125,0.88671875,0.1240234375
1969/12/31/18:00:12.637000,20,1731185445,533404118,RU_myo,0.6853885341565721,0.4437416193176844,-0.5773524040063243,0.0003662241700008,6.875,48.8125,-117.0,1.02099609375,0.8408203125,0.19482421875
1969/12/31/18:00:12.659000,21,1731185445,555896616,RU_myo,0.6905051214349129,0.4594822376170798,-0.5586053983357485,-0.0062257157594237,29.1875,70.9375,-126.3125,1.0546875,0.8232421875,0.14501953125
1969/12/31/18:00:12.673000,22,1731185445,570103434,RU_myo,0.6959400911292207,0.4771846722020915,-0.536512313719159,-0.0108034902762561,42.3125,90.8125,-134.1875,1.01953125,0.85595703125,0.162109375
1969/12/31/18:00:12.704000,23,1731185445,600881808,RU_myo,0.7010102113051903,0.4954375172106425,-0.512710994772625,-0.0159306630518637,43.8125,95.5625,-142.75,0.982421875,0.8916015625,0.12890625
1969/12/31/18:00:12.718000,24,1731185445,614457757,RU_myo,0.7071778408135013,0.5121027174542789,-0.4868943238537286,-0.0241707599656608,24.875,98.0625,-156.25,0.9599609375,0.96435546875,0.15869140625
1969/12/31/18:00:12.734000,25,1731185445,630238673,RU_myo,0.7153449426499207,0.5255832168223947,-0.4591147319635412,-0.0354620658429696,-3.75,103.125,-165.6875,0.91748046875,0.9873046875,0.13427734375
1969/12/31/18:00:12.757000,26,1731185445,653391049,RU_myo,0.7265124071828364,0.5355305268102332,-0.4278018534776527,-0.0487067882829457,-32.75,119.4375,-176.8125,0.90625,0.8818359375,0.158203125
1969/12/31/18:00:12.778000,27,1731185445,674333905,RU_myo,0.7396428677514625,0.5421891066377489,-0.3939309348463392,-0.0614639682972208,-51.1875,135.0,-175.75,0.88916015625,0.81103515625,0.2548828125
1969/12/31/18:00:12.800000,28,1731185445,696876600,RU_myo,0.7553475348950572,0.5437891869398033,-0.3581110292710546,-0.074161394335151,-80.8125,148.125,-169.25,0.8134765625,0.8271484375,0.3154296875
1969/12/31/18:00:12.817000,29,1731185445,713288142,RU_myo,0.7749972914060851,0.5393912785819936,-0.3177018903495844,-0.086612676735074,-120.9375,174.3125,-167.8125,0.66943359375,0.77880859375,0.34619140625
1969/12/31/18:00:12.839000,30,1731185445,736097224,RU_myo,0.7977551844143335,0.5292528847786293,-0.2719203784671657,-0.0976593951846162,-156.3125,206.375,-165.8125,0.57080078125,0.7255859375,0.37939453125
1969/12/31/18:00:12.868000,31,1731185445,764324052,RU_myo,0.8214905084951796,0.5131950512985712,-0.22467542624049,-0.1063256160040569,-183.375,219.25,-150.375,0.55078125,0.6767578125,0.4306640625
1969/12/31/18:00:12.877000,32,1731185445,773428605,RU_myo,0.8443749124004352,0.4926842773526321,-0.1790192003809799,-0.1106586465362143,-196.8125,222.0625,-120.25,0.51513671875,0.6591796875,0.40283203125
1969/12/31/18:00:12.899000,33,1731185445,796109107,RU_myo,0.8660236490393363,0.4684145392393478,-0.1356900600376687,-0.1103588072641048,-206.25,220.875,-88.375,0.486328125,0.54150390625,0.3369140625
1969/12/31/18:00:12.928000,34,1731185445,824381664,RU_myo,0.8853713666298145,0.4430213980695756,-0.0938170141682195,-0.1051092377343358,-199.8125,224.125,-59.125,0.37646484375,0.453125,0.40185546875
1969/12/31/18:00:12.937000,35,1731185445,833401443,RU_myo,0.899729137735916,0.4224900000955166,-0.0573736781406798,-0.0932627448925093,-154.25,213.625,-17.1875,0.3134765625,0.29248046875,0.421875
1969/12/31/18:00:12.966000,36,1731185445,863337736,RU_myo,0.9078939425966154,0.4114638340085911,-0.0256974149410498,-0.0759325040063325,-85.6875,205.0,17.375,0.23291015625,0.283203125,0.41796875
1969/12/31/18:00:12.980000,37,1731185445,876848269,RU_myo,0.9101362648168942,0.4105409776110543,0.0015869856404828,-0.0557276111446465,-16.6875,192.25,39.1875,0.19580078125,0.25439453125,0.435546875
1969/12/31/18:00:12.997000,38,1731185445,893235174,RU_myo,0.9063575299952672,0.4204927620807728,0.0252088127071213,-0.0326554837731475,55.375,183.25,60.8125,0.1708984375,0.3115234375,0.44482421875
1969/12/31/18:00:13.019000,39,1731185445,915810984,RU_myo,0.8972715419269545,0.4389916278597726,0.0460233158240084,-0.0084844043760439,112.75,173.5,74.0,0.140625,0.39404296875,0.46435546875
1969/12/31/18:00:13.040000,40,1731185445,936898013,RU_myo,0.8841979089810257,0.4620584130185258,0.0664094522277616,0.0169075535543106,141.9375,175.0625,81.875,0.14111328125,0.591796875,0.283203125
1969/12/31/18:00:13.057000,41,1731185445,953523579,RU_myo,0.8705779457653222,0.4823794086365661,0.0875277833714837,0.0417496539930926,126.3125,177.3125,75.75,0.10791015625,0.78466796875,0.12109375
1969/12/31/18:00:13.079000,42,1731185445,975875800,RU_myo,0.8598590827880401,0.494600564196173,0.1088939166390192,0.0644573856338589,77.125,171.5,61.6875,-0.04443359375,1.05126953125,0.12353515625
1969/12/31/18:00:13.100000,43,1731185445,996774263,RU_myo,0.8516694424200335,0.5013697986123525,0.1283638527491815,0.0825239795135014,46.75,148.6875,41.625,-0.21923828125,1.275390625,0.2939453125
1969/12/31/18:00:13.117000,44,1731185446,13526073,RU_myo,0.8474460886609385,0.5019732521713886,0.1432552556962851,0.0966225265305578,6.625,114.5625,29.625,-0.24755859375,0.98486328125,0.1708984375
1969/12/31/18:00:13.139000,45,1731185446,35931198,RU_myo,0.8483541241545672,0.4945222759839056,0.1535082108244288,0.1103550080201063,-67.625,87.1875,33.375,-0.1748046875,0.7724609375,0.0283203125
1969/12/31/18:00:13.160000,46,1731185446,56858699,RU_myo,0.8496912795432017,0.4869504366206209,0.1580239007784892,0.1262238033255758,-58.375,68.5625,58.5,-0.13232421875,0.6611328125,0.2529296875
1969/12/31/18:00:13.176000,47,1731185446,73256493,RU_myo,0.8430562323050674,0.4944074342362472,0.1589428344137269,0.1398379545475608,41.9375,44.0,72.75,-0.04931640625,0.60009765625,0.29296875
1969/12/31/18:00:13.199000,48,1731185446,95867507,RU_myo,0.8313439882234641,0.5107699334400843,0.1593104118401792,0.1503377564606749,93.0,31.875,65.875,0.03564453125,0.76611328125,0.21044921875
1969/12/31/18:00:13.220000,49,1731185446,116853938,RU_myo,0.8190775227241283,0.5273128190486432,0.160531625662453,0.1590056596390457,95.9375,29.5625,57.0,-0.0087890625,1.001953125,0.24609375
1969/12/31/18:00:13.237000,50,1731185446,133533827,RU_myo,0.8057578631817746,0.5451881852844186,0.1617497414916826,0.1654119997896075,117.4375,21.1875,53.875,-0.01611328125,1.08642578125,0.296875
1969/12/31/18:00:13.259000,51,1731185446,155765287,RU_myo,0.7940024284434934,0.5607703190429254,0.1622431161441271,0.1696289013410569,96.0,12.4375,39.1875,-0.0166015625,1.16552734375,0.25390625
1969/12/31/18:00:13.280000,52,1731185446,176996737,RU_myo,0.788790373918393,0.5678948881015807,0.15997984756172,0.1723705034392588,31.625,-4.0625,29.875,-0.05810546875,1.3115234375,0.22802734375
1969/12/31/18:00:13.297000,53,1731185446,193480201,RU_myo,0.7903757997131124,0.5660626431801223,0.1571718035571291,0.1737129914266366,-31.0,-8.625,12.0,-0.06689453125,1.2255859375,0.19873046875
1969/12/31/18:00:13.319000,54,1731185446,215997535,RU_myo,0.7961258132098613,0.5586248135012383,0.1541223398263359,0.1742650614670056,-57.9375,-9.1875,-1.625,-0.02978515625,0.96875,0.30419921875
1969/12/31/18:00:13.348000,55,1731185446,244613265,RU_myo,0.8007695150538756,0.5529515235058358,0.149484300813091,0.1751206447663365,-40.1875,-14.25,2.3125,0.06298828125,0.80615234375,0.3876953125
1969/12/31/18:00:13.356000,56,1731185446,252937236,RU_myo,0.8028973007696146,0.5505040866383727,0.1443554900653899,0.1773771899069864,-16.1875,-10.9375,10.6875,0.146484375,0.77490234375,0.4287109375
1969/12/31/18:00:13.379000,57,1731185446,275872772,RU_myo,0.8023333257631835,0.5514096055492278,0.1410568517184265,0.1797544042885185,2.5,-4.6875,12.8125,0.115234375,1.001953125,0.4033203125
1969/12/31/18:00:13.400000,58,1731185446,296911475,RU_myo,0.8008090349448351,0.5532418515807915,0.1399584692933313,0.1817690019867164,12.375,2.8125,10.0,0.06005859375,1.14794921875,0.45458984375
1969/12/31/18:00:13.417000,59,1731185446,313446520,RU_myo,0.8004623193476303,0.5530722186677504,0.1406943454397047,0.1832383622603009,5.5,9.0625,3.625,-0.00927734375,0.97314453125,0.45166015625
1969/12/31/18:00:13.439000,60,1731185446,335968010,RU_myo,0.800374686236469,0.5531148788740092,0.1398351564224625,0.1841478249352114,1.4375,-0.3125,5.125,0.01123046875,0.85546875,0.35546875
1969/12/31/18:00:13.460000,61,1731185446,356852133,RU_myo,0.7994846819491215,0.554597482072814,0.1385578124923275,0.1845199414820731,8.375,-4.5625,5.1875,0.02294921875,0.96142578125,0.359375
1969/12/31/18:00:13.484000,62,1731185446,380847641,RU_myo,0.7985642208446705,0.5559369352177068,0.1392283870478249,0.1839694689005455,11.625,1.3125,-4.75,0.0126953125,0.99462890625,0.3857421875
1969/12/31/18:00:13.499000,63,1731185446,395837555,RU_myo,0.7979477537311641,0.5564820370815439,0.1410584608638201,0.1836018391511773,9.375,8.125,-9.0625,0.01904296875,0.9111328125,0.37158203125
1969/12/31/18:00:13.520000,64,1731185446,416942113,RU_myo,0.7967005778740576,0.5580322312997728,0.1428347649575003,0.1829383720417216,13.4375,4.5625,-3.9375,-0.0556640625,0.87158203125,0.3125
1969/12/31/18:00:13.536000,65,1731185446,432784095,RU_myo,0.7942398160119924,0.5612538509245519,0.1451508056007161,0.1819573387282315,23.875,3.625,0.3125,-0.12939453125,0.8544921875,0.267578125
1969/12/31/18:00:13.559000,66,1731185446,455941288,RU_myo,0.7909494019794139,0.5657748114637434,0.1472271922807799,0.1806157802482702,33.875,1.0,-0.375,-0.107421875,0.8544921875,0.27734375
1969/12/31/18:00:13.580000,67,1731185446,476794788,RU_myo,0.7871591437375037,0.5709589508778389,0.1485689636985952,0.1797599006131318,38.75,1.625,-0.25,-0.02099609375,0.83837890625,0.2822265625
1969/12/31/18:00:13.596000,68,1731185446,492734698,RU_myo,0.783312643880772,0.5759023451270229,0.1496674669052951,0.1798817393841374,34.625,4.5625,1.75,0.0244140625,0.93505859375,0.26806640625
1969/12/31/18:00:13.627000,69,1731185446,523521790,RU_myo,0.7794879184158066,0.5804957011851465,0.1518689068926019,0.1798865227542194,30.6875,7.875,1.875,-0.048828125,1.03125,0.22802734375
1969/12/31/18:00:13.640000,70,1731185446,536927052,RU_myo,0.7762788457306847,0.5846201277251533,0.1544866927617835,0.1781693623752059,28.6875,3.4375,-6.1875,-0.0830078125,0.984375,0.20849609375
1969/12/31/18:00:13.656000,71,1731185446,552885407,RU_myo,0.7729291280986738,0.5892646136511567,0.1566245078339411,0.1755464086244796,35.5,-1.25,-11.3125,-0.03515625,0.93896484375,0.236328125
1969/12/31/18:00:13.687000,72,1731185446,583379009,RU_myo,0.7685380606129628,0.5953102775917899,0.1589447311441629,0.1723122027726466,45.9375,-2.75,-12.8125,-0.03173828125,0.99072265625,0.22998046875
1969/12/31/18:00:13.700000,73,1731185446,596859322,RU_myo,0.7643839500500471,0.6007399853383825,0.1620569661728719,0.1690153443814246,43.0625,0.4375,-14.6875,-0.072265625,1.03369140625,0.22705078125
1969/12/31/18:00:13.716000,74,1731185446,612600457,RU_myo,0.76004479069522,0.6061070327339813,0.1651687442676891,0.166389503648825,57.1875,3.125,-9.25,-0.09716796875,0.86962890625,0.376953125
1969/12/31/18:00:13.739000,75,1731185446,635815890,RU_myo,0.753154993597602,0.6149026181621073,0.1674288149313738,0.163156114586789,73.9375,-2.875,-7.3125,-0.0419921875,0.84814453125,0.259765625
1969/12/31/18:00:13.762000,76,1731185446,658499131,RU_myo,0.7477109786254929,0.6215461955382362,0.170966404173878,0.1593082166704111,53.5625,-0.125,-13.25,-0.12841796875,1.1171875,0.171875
1969/12/31/18:00:13.776000,77,1731185446,672761173,RU_myo,0.7448543660635627,0.6249134638825498,0.1757912459446907,0.1541835719639891,30.875,-0.125,-21.625,-0.24951171875,1.20263671875,0.14794921875
1969/12/31/18:00:13.799000,78,1731185446,695997641,RU_myo,0.7446647802910377,0.6254573773477264,0.1800623853982427,0.1478342703167945,13.5,-6.4375,-30.75,-0.2490234375,1.0712890625,0.17236328125
1969/12/31/18:00:13.822000,79,1731185446,718396639,RU_myo,0.7451594189982272,0.625401655230655,0.1834210398173061,0.1413043950672425,12.3125,-9.9375,-36.375,-0.15478515625,0.951171875,0.21337890625
1969/12/31/18:00:13.836000,80,1731185446,732953916,RU_myo,0.74624115734313,0.6241667000646857,0.187384291922412,0.13574679649363,4.3125,-2.5,-40.1875,-0.11279296875,1.02880859375,0.22265625
1969/12/31/18:00:13.859000,81,1731185446,755861971,RU_myo,0.7477930227802765,0.6216246954529699,0.1927012140165972,0.1313566717021594,-0.6875,7.9375,-40.9375,-0.15576171875,1.11669921875,0.27294921875
1969/12/31/18:00:13.882000,82,1731185446,778617765,RU_myo,0.7501787741761912,0.6176614333514141,0.1986234118119874,0.1275731194490024,-9.0625,13.125,-43.375,-0.158203125,1.08544921875,0.29052734375
1969/12/31/18:00:13.904000,83,1731185446,800963625,RU_myo,0.7547860009822942,0.6104330257014333,0.2052680997334187,0.1246379600522274,-30.875,18.875,-45.0625,-0.22119140625,1.11376953125,0.31591796875
1969/12/31/18:00:13.919000,84,1731185446,815756362,RU_myo,0.7613341060984982,0.6000701993950401,0.2129635770205772,0.1221992207495545,-50.0625,24.875,-47.3125,-0.28466796875,0.97509765625,0.32470703125
1969/12/31/18:00:13.942000,85,1731185446,838398028,RU_myo,0.7677327145108565,0.5890142069510068,0.2213228512336115,0.1210988794394608,-50.4375,33.75,-45.3125,-0.259765625,0.810546875,0.36376953125
1969/12/31/18:00:13.963000,86,1731185446,859440641,RU_myo,0.7727274555111378,0.5787521116237447,0.2297429812435958,0.123111475336964,-49.0625,45.875,-32.375,-0.2353515625,0.79248046875,0.32958984375
1969/12/31/18:00:13.979000,87,1731185446,875841865,RU_myo,0.7756813292066028,0.5702246598558455,0.2389669817314959,0.1267165910790767,-36.0,55.9375,-22.625,-0.2607421875,0.76513671875,0.34130859375
1969/12/31/18:00:14.002000,88,1731185446,898517741,RU_myo,0.7770206600779588,0.5632026418334113,0.2487320651859923,0.1310497531176259,-24.375,61.9375,-17.5,-0.2744140625,0.71875,0.3330078125
1969/12/31/18:00:14.023000,89,1731185446,919386747,RU_myo,0.7763435756408505,0.5587427542586954,0.2579470045332365,0.1362370359957841,-8.4375,62.5,-5.5,-0.30224609375,0.72509765625,0.33251953125
1969/12/31/18:00:14.039000,90,1731185446,935859978,RU_myo,0.7749970041156585,0.5552609078081552,0.2656975631184895,0.1430726138179966,-4.8125,64.5625,-0.5,-0.189453125,0.8154296875,0.373046875
1969/12/31/18:00:14.062000,91,1731185446,958482004,RU_myo,0.7745847660086549,0.5497171318103977,0.2736377861321356,0.1514987698371538,-25.4375,69.8125,-1.4375,-0.16015625,0.8740234375,0.29833984375
1969/12/31/18:00:14.083000,92,1731185446,979688675,RU_myo,0.7754855030147563,0.5409781986005341,0.2824219931089553,0.1618722986222065,-45.0,79.25,3.25,-0.22265625,0.81103515625,0.29736328125
1969/12/31/18:00:14.099000,93,1731185446,996026933,RU_myo,0.7757506327216931,0.533057697345074,0.2904258014391231,0.1723754651668944,-42.6875,76.6875,6.4375,-0.2001953125,0.81103515625,0.2783203125
1969/12/31/18:00:14.122000,94,1731185447,18522744,RU_myo,0.7745105325484394,0.5271847639389132,0.2978651902306237,0.1829917705556167,-38.9375,71.5625,15.0,-0.2353515625,0.86865234375,0.15234375
1969/12/31/18:00:14.143000,95,1731185447,39585980,RU_myo,0.7731170132089434,0.5219424901270864,0.304095133412834,0.1933708114515974,-29.75,67.75,17.9375,-0.17822265625,0.70458984375,0.21484375
1969/12/31/18:00:14.158000,96,1731185447,55096098,RU_myo,0.7687365842318381,0.521524962337369,0.3106931248007032,0.2013096121007306,5.1875,59.9375,24.0625,-0.236328125,0.5791015625,0.17236328125
1969/12/31/18:00:14.164000,97,1731185447,61332064,RU_myo,0.7615240822325954,0.5263403463523301,0.3147787505669681,0.2096693830129019,28.75,50.0,38.4375,-0.1494140625,0.705078125,0.12890625
1969/12/31/18:00:14.187000,98,1731185447,83923289,RU_myo,0.7526065843464244,0.5333557448515049,0.3191711135074982,0.2173586412698797,46.4375,50.75,37.3125,-0.11474609375,0.81103515625,0.15576171875
1969/12/31/18:00:14.209000,99,1731185447,106167062,RU_myo,0.7430328397108249,0.5410534043536311,0.3227764442939984,0.2257848085180597,45.4375,49.0,44.5,-0.1064453125,0.830078125,0.09033203125
1969/12/31/18:00:14.224000,100,1731185447,121191823,RU_myo,0.7357764204286752,0.5464913134310543,0.3233900344641713,0.2353703233095214,16.0,36.6875,54.0625,-0.17333984375,1.03076171875,0.02099609375
1969/12/31/18:00:14.247000,101,1731185447,143603497,RU_myo,0.7328411899897034,0.5472198291069208,0.3221668999471643,0.2443414362426105,-14.5625,27.125,39.3125,-0.1572265625,1.25244140625,0.130859375
1969/12/31/18:00:14.270000,102,1731185447,166267489,RU_myo,0.7329342195962153,0.5452449520030805,0.3185529390466894,0.2530600661597192,-24.75,17.1875,36.6875,-0.0517578125,0.826171875,0.24853515625
1969/12/31/18:00:14.284000,103,1731185447,181146241,RU_myo,0.7309419040998627,0.5466651935798221,0.3134962521467135,0.2619183056778714,-11.3125,10.0625,47.875,0.0400390625,0.64794921875,0.13720703125
1969/12/31/18:00:14.307000,104,1731185447,203653292,RU_myo,0.7265361705145184,0.5509906755636862,0.3098902913301024,0.2692999734781193,3.875,10.5625,44.125,0.0283203125,0.97900390625,0.0654296875
1969/12/31/18:00:14.329000,105,1731185447,226184467,RU_myo,0.7216500436142397,0.5558713479823125,0.3073253801571257,0.2752805291973459,13.3125,11.8125,32.0,0.087890625,1.15380859375,0.1171875
1969/12/31/18:00:14.344000,106,1731185447,241193637,RU_myo,0.716300631586097,0.5607715298152086,0.305564632443119,0.2812098005724029,23.3125,16.0625,31.0625,0.125,0.875,0.1533203125
1969/12/31/18:00:14.367000,107,1731185447,263588774,RU_myo,0.7101959294124053,0.5665086739043003,0.3034889695778667,0.28737451101621,20.5,13.4375,42.5625,0.01708984375,1.04443359375,0.06494140625
1969/12/31/18:00:14.390000,108,1731185447,286322448,RU_myo,0.7068906761010281,0.5699195443187375,0.3006162317414353,0.2917656015683373,-1.625,2.375,32.6875,-0.03466796875,1.314453125,0.02880859375
1969/12/31/18:00:14.404000,109,1731185447,301239226,RU_myo,0.707129437135294,0.5691827364079945,0.2972568285583842,0.2960360612953108,-23.375,2.125,17.0,0.04150390625,1.07470703125,0.0947265625
1969/12/31/18:00:14.427000,110,1731185447,323635984,RU_myo,0.7059578567693595,0.5701497786687348,0.2941999714359599,0.2999985185908181,-0.25,2.3125,22.125,0.04736328125,0.83349609375,0.2099609375
1969/12/31/18:00:14.445000,111,1731185447,341698001,RU_myo,0.7033997851907398,0.5727178223225191,0.2918217956436069,0.3034189805781991,3.4375,2.0625,24.625,0.0107421875,1.15234375,0.12255859375
1969/12/31/18:00:14.465000,112,1731185447,361472185,RU_myo,0.7040974519720444,0.5715794139806003,0.2889637917326101,0.3066654181801085,-29.75,0.25,14.375,-0.00390625,1.25048828125,0.052734375
1969/12/31/18:00:14.487000,113,1731185447,383654148,RU_myo,0.7064661969720928,0.5682737423371508,0.2866394730413813,0.3095291243170453,-24.0,2.4375,8.6875,-0.0380859375,0.9091796875,0.26171875
1969/12/31/18:00:14.512000,114,1731185447,409016195,RU_myo,0.7046868563724907,0.5697922740785796,0.2860253450811166,0.3113562281815569,11.4375,3.6875,14.125,-0.0263671875,0.85107421875,0.2119140625
1969/12/31/18:00:14.524000,115,1731185447,421199564,RU_myo,0.7020798512797596,0.5724923426493537,0.2859714921966331,0.3123406884888306,13.125,2.375,11.75,-0.02880859375,1.0537109375,0.130859375
1969/12/31/18:00:14.547000,116,1731185447,443589465,RU_myo,0.7020838352529031,0.5719462299008609,0.2851795929665765,0.3140515851483382,-10.6875,3.3125,8.875,-0.05078125,1.103515625,0.14501953125
1969/12/31/18:00:14.565000,117,1731185447,461671551,RU_myo,0.7032849569844378,0.5700380327441126,0.2838898051496806,0.3159960269318204,-10.3125,3.0625,6.0625,-0.03271484375,0.97265625,0.28466796875
1969/12/31/18:00:14.585000,118,1731185447,481856722,RU_myo,0.7031009785140095,0.5703425248055305,0.2834621880561733,0.3162397924890254,4.375,-1.3125,4.3125,-0.048828125,0.9111328125,0.22705078125
1969/12/31/18:00:14.607000,119,1731185447,503620781,RU_myo,0.7030237193584431,0.571061809195832,0.281868686924578,0.316537680898844,-9.5,-6.8125,7.125,-0.02685546875,0.90869140625,0.04150390625
1969/12/31/18:00:14.624000,120,1731185447,520366137,RU_myo,0.702479257136155,0.5721644414279535,0.2807109308861914,0.3167840250705226,4.125,-4.375,4.5625,0.0126953125,1.01806640625,0.20263671875
1969/12/31/18:00:14.644000,121,1731185447,541131448,RU_myo,0.7008446007440624,0.5740064993378473,0.2809604334806583,0.3168510993261128,19.0,1.1875,1.1875,0.02587890625,1.03857421875,0.2763671875
1969/12/31/18:00:14.667000,122,1731185447,563584347,RU_myo,0.7009090549845909,0.5741313743085484,0.2804734919144993,0.3169136822676997,-7.375,-1.6875,0.1875,-0.00390625,0.98681640625,0.087890625
1969/12/31/18:00:14.683000,123,1731185447,580161072,RU_myo,0.7013296442534279,0.5739427889395111,0.2787007098051481,0.3178872747843214,-8.1875,-3.9375,6.25,0.0087890625,0.8916015625,0.150390625
1969/12/31/18:00:14.705000,124,1731185447,601204824,RU_myo,0.6997481906753973,0.5757784963922734,0.2779094131319857,0.3187443345871357,13.875,-0.625,9.75,0.01171875,0.935546875,0.236328125
1969/12/31/18:00:14.734000,125,1731185447,631164509,RU_myo,0.6984538121495526,0.5770499292197737,0.2779044137653511,0.3192879394699213,7.625,1.75,5.625,-0.00732421875,1.03369140625,0.17626953125
1969/12/31/18:00:14.745000,126,1731185447,641491695,RU_myo,0.6987689412775774,0.5763867149269885,0.2773590207167463,0.3202690980855563,-10.9375,1.5625,3.25,-0.01318359375,1.04443359375,0.1279296875
1969/12/31/18:00:14.764000,127,1731185447,661164023,RU_myo,0.699211345109654,0.5757887925289713,0.2757779884072821,0.3217409864751624,-5.375,-0.5625,7.6875,0.01318359375,0.86279296875,0.21435546875
1969/12/31/18:00:14.787000,128,1731185447,683790871,RU_myo,0.6985765094713591,0.5765621414125346,0.2744255121523137,0.3228894482397108,-0.1875,-2.0625,10.75,-0.00439453125,0.89306640625,0.15185546875
1969/12/31/18:00:14.805000,129,1731185447,701723519,RU_myo,0.6983520830427218,0.5765173869712881,0.2736397507456097,0.3241193567832228,-6.4375,1.5,6.3125,0.017578125,1.08740234375,0.15478515625
1969/12/31/18:00:14.824000,130,1731185447,721275546,RU_myo,0.6977239975007012,0.5760755041913759,0.2747314944231175,0.3253318963064244,11.125,10.3125,1.75,-0.01171875,1.10791015625,0.3642578125
1969/12/31/18:00:14.847000,131,1731185447,743783778,RU_myo,0.6982271646979675,0.5742565928384018,0.2760191659029818,0.326376488297931,-3.625,11.125,-2.8125,-0.02978515625,1.0380859375,0.26416015625
1969/12/31/18:00:14.865000,132,1731185447,761686021,RU_myo,0.7001143983746719,0.5713226476710488,0.2759561634744457,0.3275339025003043,-28.1875,5.625,-3.0,-0.015625,0.96044921875,0.0732421875
1969/12/31/18:00:14.885000,133,1731185447,781461585,RU_myo,0.7021217055620546,0.5688144113824903,0.2747326607610891,0.3286293369335045,-25.5625,0.125,1.75,-0.0283203125,0.96142578125,0.12255859375
1969/12/31/18:00:14.910000,134,1731185447,806810152,RU_myo,0.7027993215249744,0.5671713822833127,0.274857160398381,0.3299140466251942,-0.0625,6.5,2.25,-0.0302734375,0.8115234375,0.32666015625
1969/12/31/18:00:14.925000,135,1731185447,821751011,RU_myo,0.7006045524826331,0.5683942840841854,0.2771166290530714,0.3305867099011971,20.1875,12.25,2.0625,-0.0234375,0.81103515625,0.23828125
1969/12/31/18:00:14.944000,136,1731185447,841288773,RU_myo,0.6980894640372558,0.5700931707710037,0.2788817663011473,0.3314963608626682,12.8125,11.0,3.125,0.0224609375,1.06787109375,0.1484375
1969/12/31/18:00:14.967000,137,1731185447,863853346,RU_myo,0.6979102170246598,0.5695469857492654,0.2783339679580592,0.3332683037392551,-8.1875,6.125,1.9375,0.08056640625,1.12353515625,0.185546875
1969/12/31/18:00:14.985000,138,1731185447,881687311,RU_myo,0.700233150855762,0.5662537430691165,0.2772366606683116,0.3349180002393276,-25.875,3.8125,-0.6875,0.00830078125,1.03076171875,0.21142578125
1969/12/31/18:00:15.014000,139,1731185447,910369268,RU_myo,0.7030442096483132,0.562105758521559,0.2758951057136982,0.3371169621364502,-30.6875,5.0,2.6875,-0.0283203125,0.81787109375,0.197265625
1969/12/31/18:00:15.027000,140,1731185447,923752751,RU_myo,0.7031683318963661,0.5614359649985048,0.2758959080010048,0.3379724873012308,-9.9375,4.375,0.1875,0.01708984375,0.94482421875,0.130859375
1969/12/31/18:00:15.045000,141,1731185447,941811147,RU_myo,0.7021392743558551,0.5618701226154609,0.2762044872172689,0.3391363825368279,2.625,5.625,5.4375,0.0068359375,0.95751953125,0.1962890625
1969/12/31/18:00:15.064000,142,1731185447,961216703,RU_myo,0.7013817561668937,0.5625214746178829,0.2757673635333761,0.3399787992210946,2.125,1.0,7.25,-0.005859375,0.9599609375,0.19775390625
1969/12/31/18:00:15.087000,143,1731185447,983772229,RU_myo,0.7012459589397705,0.5626325397777704,0.2755178221476302,0.3402773279736461,0.8125,-0.5625,4.125,-0.02734375,0.9384765625,0.22265625
1969/12/31/18:00:15.105000,144,1731185448,1855887,RU_myo,0.700970475128092,0.5630226108134379,0.2751022232151089,0.3405359004475466,1.8125,-1.125,3.375,-0.00244140625,0.97412109375,0.224609375
1969/12/31/18:00:15.124000,145,1731185448,21303848,RU_myo,0.7003739529138284,0.5635220789001625,0.2749855898445875,0.3410309634765173,2.0,1.8125,2.125,0.03173828125,1.0234375,0.2109375
1969/12/31/18:00:15.147000,146,1731185448,43780399,RU_myo,0.7010963913845664,0.5621101051941905,0.2743712588606674,0.3423689412568372,-10.75,3.3125,4.375,-0.01123046875,1.0224609375,0.236328125
1969/12/31/18:00:15.165000,147,1731185448,61692041,RU_myo,0.7029336411913744,0.5599785710567617,0.2730307552143989,0.3431654160105858,-18.375,-1.5,-0.9375,0.0244140625,0.9482421875,0.21484375
1969/12/31/18:00:15.186000,148,1731185448,82872686,RU_myo,0.7046337804779698,0.557896115173999,0.2716844210765283,0.3441376692944208,-22.0,-0.25,-1.125,0.0380859375,0.9755859375,0.17041015625
1969/12/31/18:00:15.214000,149,1731185448,111329751,RU_myo,0.705718340069943,0.5562979546270075,0.2702140712238053,0.3456567168150914,-17.5625,1.1875,2.4375,0.05712890625,0.96923828125,0.2060546875
1969/12/31/18:00:15.225000,150,1731185448,121798193,RU_myo,0.7070643617238082,0.5546524391388332,0.2685062264522645,0.3468790372648827,-17.75,-0.75,1.9375,0.0556640625,0.98779296875,0.21875
1969/12/31/18:00:15.246000,151,1731185448,142885277,RU_myo,0.7080600018927456,0.5538738325150667,0.2666822541611556,0.3474987578254656,-16.6875,-4.75,1.8125,0.05126953125,0.9755859375,0.1640625
1969/12/31/18:00:15.267000,152,1731185448,163937708,RU_myo,0.709739037094447,0.5533010295202238,0.2642905083091637,0.346812625453272,-25.4375,-11.75,-4.75,0.08935546875,1.08203125,0.07177734375
1969/12/31/18:00:15.292000,153,1731185448,189320943,RU_myo,0.7131279353136418,0.5516166354043808,0.2608840876085342,0.3451190059285569,-41.875,-19.25,-11.5625,0.0947265625,1.19775390625,0.0224609375
1969/12/31/18:00:15.308000,154,1731185448,204989448,RU_myo,0.7187884447041277,0.5489795577164508,0.2559340988998308,0.3412658113400796,-54.9375,-34.25,-20.8125,0.09033203125,1.2041015625,0.00634765625
1969/12/31/18:00:15.327000,155,1731185448,223867663,RU_myo,0.7268337150874676,0.5456135857546921,0.2495210133756775,0.3343020034879123,-63.375,-51.3125,-35.75,0.0947265625,1.06396484375,-0.0166015625
1969/12/31/18:00:15.345000,156,1731185448,241742225,RU_myo,0.7357197416796794,0.5430152511393369,0.2419030395981556,0.3245517187846059,-62.6875,-67.25,-47.3125,0.13916015625,0.9482421875,-0.0576171875
1969/12/31/18:00:15.345000,1,1731185455,881813493,RU_myo,0.6513227355551193,0.4632075944267454,-0.6008453761413732,0.0142215534986733,50.4375,45.1875,-131.4375,1.11181640625,0.74169921875,-0.07666015625
1969/12/31/18:00:15.352000,2,1731185455,888777532,RU_myo,0.6525943282183428,0.4843797782211718,-0.5825252776389697,0.0126954377356355,73.9375,64.1875,-129.3125,1.166015625,0.7998046875,-0.0107421875
1969/12/31/18:00:15.368000,3,1731185455,905176869,RU_myo,0.6564301184282999,0.5039649918979519,-0.561276742823491,0.0093383364127875,55.25,78.3125,-138.375,1.1591796875,0.91357421875,0.02685546875
1969/12/31/18:00:15.389000,4,1731185455,926286246,RU_myo,0.6643763445069187,0.5197211367456512,-0.5371163832485885,6.103595264188506,10.75,85.4375,-155.25,1.0654296875,1.0830078125,0.06982421875
1969/12/31/18:00:15.429000,5,1731185455,965765635,RU_myo,0.677876232477806,0.5294343994698802,-0.5097805054614295,-0.0175176011814451,-55.25,91.625,-177.6875,0.97412109375,1.1279296875,0.03173828125
1969/12/31/18:00:15.431000,6,1731185455,968044372,RU_myo,0.6976391752935732,0.5330866629058677,-0.4769337284115468,-0.0406498417100192,-116.0,114.5,-201.4375,1.04833984375,1.05322265625,0.04248046875
1969/12/31/18:00:15.449000,7,1731185455,986332783,RU_myo,0.7165763327445387,0.5337089824121164,-0.4441064222358827,-0.0666525856351819,-134.125,103.8125,-206.9375,0.9677734375,0.87646484375,0.0458984375
1969/12/31/18:00:15.472000,8,1731185456,8679778,RU_myo,0.7305457196825652,0.537548345997523,-0.4123625099987811,-0.0854510825929978,-85.4375,109.5,-187.9375,0.908203125,0.47998046875,0.16845703125
1969/12/31/18:00:15.487000,9,1731185456,23889462,RU_myo,0.7562314034396957,0.5280802342663639,-0.3717679966385138,-0.1050423119709214,-182.3125,165.0625,-178.9375,0.732421875,0.61181640625,0.31787109375
1969/12/31/18:00:15.509000,10,1731185456,46349816,RU_myo,0.7852947044703089,0.5114242444238083,-0.3267280081633424,-0.1225001144001173,-222.6875,194.8125,-164.3125,0.57763671875,0.56689453125,0.3330078125
1969/12/31/18:00:15.532000,11,1731185456,68798116,RU_myo,0.8147790457244202,0.4896975266946605,-0.2797922799910661,-0.1343417993587121,-237.5,217.9375,-135.5,0.583984375,0.58056640625,0.400390625
1969/12/31/18:00:15.563000,12,1731185456,100211075,RU_myo,0.84085711004066,0.4676107955880876,-0.2346294084637265,-0.1387389816436135,-217.375,226.0,-97.75,0.552734375,0.564453125,0.38330078125
1969/12/31/18:00:15.569000,13,1731185456,106214401,RU_myo,0.8639775439597579,0.4443487474409776,-0.1919611003711366,-0.1387369097435909,-207.0625,221.25,-70.125,0.5048828125,0.47802734375,0.40283203125
1969/12/31/18:00:15.592000,14,1731185456,128785345,RU_myo,0.8825191433637046,0.4238948371713762,-0.1533223658710579,-0.1340349981898261,-171.75,210.8125,-43.5,0.44921875,0.36865234375,0.46923828125
1969/12/31/18:00:15.607000,15,1731185456,143694376,RU_myo,0.8958681700398218,0.4103646322257765,-0.117744068951885,-0.1231154935593323,-115.25,210.4375,-13.0,0.35107421875,0.39111328125,0.5908203125
1969/12/31/18:00:15.629000,16,1731185456,166199768,RU_myo,0.9040563750524416,0.4053361049637635,-0.0831302175817867,-0.1071171305844609,-54.5625,219.6875,6.875,0.251953125,0.310546875,0.60595703125
1969/12/31/18:00:15.652000,17,1731185456,188868938,RU_myo,0.906167681558387,0.4104794327414894,-0.0513938561142504,-0.0878944807654639,15.375,215.625,21.3125,0.24072265625,0.21044921875,0.5009765625
1969/12/31/18:00:15.667000,18,1731185456,203838565,RU_myo,0.9024403105469928,0.4252486738979303,-0.0227059719664174,-0.0651881130648757,79.75,211.375,41.625,0.1904296875,0.298828125,0.39306640625
1969/12/31/18:00:15.697000,19,1731185456,233786783,RU_myo,0.8934041156777809,0.4474039876968049,0.0025025325369125,-0.0406508943800916,130.5,198.6875,57.0625,0.12646484375,0.4306640625,0.34716796875
1969/12/31/18:00:15.712000,20,1731185456,248752986,RU_myo,0.8804770041736631,0.4731686472342625,0.0245373834092071,-0.0164192938733251,158.625,182.9375,62.75,0.11767578125,0.564453125,0.2919921875
1969/12/31/18:00:15.727000,21,1731185456,263815956,RU_myo,0.8659608724725542,0.4981396123386561,0.0439481094086303,0.0061039040845319,156.0625,164.5,61.0625,0.08642578125,0.83056640625,0.19873046875
1969/12/31/18:00:15.749000,22,1731185456,286124615,RU_myo,0.85412114903142,0.5157199734271756,0.0617106039927653,0.0264910011205342,110.875,148.8125,53.9375,0.01220703125,1.0595703125,0.1943359375
1969/12/31/18:00:15.775000,23,1731185456,311515549,RU_myo,0.847982180532464,0.5221685420323349,0.079286608544711,0.044495717959272,41.75,140.5625,38.25,-0.02734375,1.08447265625,0.25048828125
1969/12/31/18:00:15.787000,24,1731185456,323734993,RU_myo,0.8467571273561476,0.5199075333972223,0.0951556520974723,0.0603649390150097,-14.0625,126.0625,27.625,-0.03466796875,0.9765625,0.26416015625
1969/12/31/18:00:15.809000,25,1731185456,346279301,RU_myo,0.8472784796889696,0.514861607677866,0.1065125673263635,0.075443858576152,-33.6875,101.125,36.3125,-0.08203125,0.93603515625,0.244140625
1969/12/31/18:00:15.832000,26,1731185456,368884312,RU_myo,0.8483076882188947,0.5090578586663967,0.1150568421566136,0.089420834885644,-51.4375,81.0,41.875,-0.1494140625,0.8232421875,0.17822265625
1969/12/31/18:00:15.850000,27,1731185456,386587021,RU_myo,0.8477408337120813,0.50623964826899,0.1211581506889251,0.101870505541469,-25.4375,65.4375,43.6875,-0.1171875,0.6669921875,0.20849609375
1969/12/31/18:00:15.872000,28,1731185456,409099595,RU_myo,0.8415409042337522,0.5135187950474038,0.1240306895918607,0.1127995641563773,37.4375,46.0,50.625,-0.0283203125,0.7119140625,0.193359375
1969/12/31/18:00:15.892000,29,1731185456,428666920,RU_myo,0.8308618127306245,0.5279256404868624,0.1270219976706163,0.1217726503377605,85.125,39.875,47.6875,-0.01708984375,0.8857421875,0.2265625
1969/12/31/18:00:15.907000,30,1731185456,443734746,RU_myo,0.8182534864096147,0.5446680984135018,0.1315431751743916,0.1284300884301252,114.375,39.3125,38.375,-0.046875,0.99169921875,0.27978515625
1969/12/31/18:00:15.929000,31,1731185456,466297289,RU_myo,0.8052610479071025,0.5615403350826456,0.1345255324480598,0.1346476064339474,116.5625,31.0,41.0,0.0048828125,0.955078125,0.2998046875
1969/12/31/18:00:15.952000,32,1731185456,488653151,RU_myo,0.7942344363334966,0.5755330848592484,0.1352615670853849,0.1402056947631449,87.375,20.3125,37.0,0.02099609375,1.1044921875,0.21533203125
1969/12/31/18:00:15.974000,33,1731185456,511166453,RU_myo,0.7870812592882483,0.5840698387071926,0.1373348455524279,0.1431944656293315,54.375,18.0625,16.875,-0.02880859375,1.2255859375,0.25244140625
1969/12/31/18:00:15.989000,34,1731185456,526289455,RU_myo,0.7825730872427309,0.5895086870439353,0.1400220468087376,0.1430129274947132,33.8125,10.25,-2.0625,-0.06201171875,1.16259765625,0.20263671875
1969/12/31/18:00:16.012000,35,1731185456,548726527,RU_myo,0.7812209988975447,0.5913328414188149,0.141058030193939,0.1418515197623168,8.875,-0.3125,-5.0625,-0.0673828125,0.99072265625,0.1826171875
1969/12/31/18:00:16.030000,36,1731185456,566663672,RU_myo,0.7813999707316147,0.59163489425883,0.1400806852701965,0.1405689839552342,-1.5,-9.125,-3.3125,-0.03857421875,0.91064453125,0.21142578125
1969/12/31/18:00:16.052000,37,1731185456,589279168,RU_myo,0.7807232910767451,0.5932178614631292,0.1390421121939508,0.1386758906517367,5.625,-11.4375,-5.0,-0.02294921875,0.92236328125,0.17822265625
1969/12/31/18:00:16.072000,38,1731185456,608850884,RU_myo,0.7789123035505343,0.5962851103663639,0.1377028568928771,0.1370314333885235,13.875,-12.0,-2.875,0.01171875,0.896484375,0.14404296875
1969/12/31/18:00:16.087000,39,1731185456,623982270,RU_myo,0.7771239828669041,0.5994450703531155,0.1338542958236821,0.137211334706629,25.625,-14.4375,7.6875,0.103515625,0.97509765625,0.37255859375
1969/12/31/18:00:16.109000,40,1731185456,646286334,RU_myo,0.7756837177903104,0.6018446220815598,0.1302572437649136,0.1383143928637742,33.0625,-10.8125,14.5625,0.0478515625,1.033203125,0.5654296875
1969/12/31/18:00:16.132000,41,1731185456,668901619,RU_myo,0.776094144913906,0.6015263702812854,0.129216775838202,0.1383724283538989,0.125,-5.0625,6.0625,-0.0791015625,1.07568359375,0.3232421875
1969/12/31/18:00:16.147000,42,1731185456,683796219,RU_myo,0.7779433943816069,0.5990377773606191,0.1306236848942047,0.1374600646643686,-26.5,1.5625,-5.4375,-0.1416015625,0.9873046875,0.09375
1969/12/31/18:00:16.177000,43,1731185456,713754145,RU_myo,0.7784292521644234,0.5988527713467543,0.1307453507516815,0.1353843081079503,-6.75,-8.25,-6.375,-0.1015625,0.98095703125,0.16845703125
1969/12/31/18:00:16.187000,44,1731185456,724111929,RU_myo,0.7777923176557493,0.6000530703031994,0.1311071096542846,0.1333654723438603,13.5625,-4.875,-11.6875,0.00341796875,0.9091796875,0.2919921875
1969/12/31/18:00:16.208000,45,1731185456,745076821,RU_myo,0.7754825907570887,0.6028072464633615,0.1336112861997062,0.1319022336580927,24.9375,7.0,-15.875,0.025390625,0.86572265625,0.2353515625
1969/12/31/18:00:16.229000,46,1731185456,766148063,RU_myo,0.7715161778124429,0.6075689900272988,0.1362971222353785,0.1305595810396214,33.5,6.6875,-9.75,-0.0322265625,0.8564453125,0.13232421875
1969/12/31/18:00:16.255000,47,1731185456,791498099,RU_myo,0.7669186363273706,0.613229728546048,0.1378195209571988,0.1295796470292883,40.0,1.6875,2.1875,-0.10595703125,0.896484375,0.15478515625
1969/12/31/18:00:16.268000,48,1731185456,805142987,RU_myo,0.7628596596969732,0.6183203994823443,0.138679560476198,0.1284250859339439,35.5625,-1.8125,3.0625,-0.111328125,0.93408203125,0.14892578125
1969/12/31/18:00:16.289000,49,1731185456,826152606,RU_myo,0.7599655034590944,0.6220230058430352,0.1395294467036776,0.1267728174993606,21.5625,-3.1875,-4.6875,-0.0625,0.99755859375,0.09326171875
1969/12/31/18:00:16.307000,50,1731185456,844147625,RU_myo,0.7590454964973739,0.6234842189386196,0.1392844823903994,0.1253682413803157,7.75,-6.1875,-4.875,-0.03466796875,0.984375,0.14404296875
1969/12/31/18:00:16.328000,51,1731185456,865264337,RU_myo,0.757853610089893,0.6254001360326228,0.1378858976476376,0.124579511774603,12.625,-8.5,-1.3125,0.02197265625,0.93212890625,0.17822265625
1969/12/31/18:00:16.349000,52,1731185456,886162198,RU_myo,0.7553477811348851,0.628693506722369,0.1377021894335596,0.1234192495721,19.375,-4.75,-3.3125,-0.0068359375,1.0400390625,0.11279296875
1969/12/31/18:00:16.367000,53,1731185456,904106038,RU_myo,0.7536543541677415,0.6305987796960345,0.1392920738811684,0.1222620613426732,21.875,2.5,-6.9375,-0.07373046875,1.0087890625,0.248046875
1969/12/31/18:00:16.390000,54,1731185456,926592568,RU_myo,0.7486178580533881,0.6363709570374745,0.1413615131880674,0.1209141440524877,56.625,4.4375,-3.1875,-0.07568359375,0.8251953125,0.28515625
1969/12/31/18:00:16.409000,55,1731185456,946200869,RU_myo,0.741263758494427,0.6445771812995017,0.1446025892517537,0.1189049573079005,68.5625,6.375,-5.125,-0.1181640625,0.99755859375,0.16748046875
1969/12/31/18:00:16.427000,56,1731185456,964122198,RU_myo,0.7341576158808097,0.6519402639859435,0.1506402557361023,0.1152996122712711,67.9375,11.9375,-13.25,-0.26953125,1.11669921875,0.16455078125
1969/12/31/18:00:16.450000,57,1731185456,986681896,RU_myo,0.7285462346562964,0.6574983277243318,0.1571110931639835,0.1106003499662541,58.5625,9.8125,-19.8125,-0.31298828125,1.01611328125,0.1728515625
1969/12/31/18:00:16.469000,58,1731185457,6340929,RU_myo,0.7240258463040034,0.6623170172184067,0.1611998195994666,0.1055336948456939,50.1875,-1.25,-21.5,-0.2001953125,0.9375,0.150390625
1969/12/31/18:00:16.487000,59,1731185457,24071650,RU_myo,0.7231776243284438,0.6629942062335885,0.1651076530898413,0.1009567682848789,13.8125,-0.8125,-27.0,-0.20458984375,1.17138671875,0.09423828125
1969/12/31/18:00:16.508000,60,1731185457,45094473,RU_myo,0.7251933288787245,0.6601267445352584,0.1707845243836942,0.0957076962950795,-10.9375,2.5,-37.6875,-0.28125,1.19384765625,0.09033203125
1969/12/31/18:00:16.534000,61,1731185457,70537281,RU_myo,0.7292968416393059,0.6549510471032601,0.1756709332304923,0.0911315855848245,-24.1875,2.0625,-40.125,-0.2060546875,0.99755859375,0.16259765625
1969/12/31/18:00:16.547000,62,1731185457,84155197,RU_myo,0.7357184258884468,0.6468437865377807,0.1797025674782699,0.0895460823677384,-41.75,10.5625,-34.9375,-0.1328125,1.0322265625,0.28466796875
1969/12/31/18:00:16.570000,63,1731185457,106463708,RU_myo,0.7431980495760833,0.6364426792813583,0.1860436641842889,0.089359555238123,-57.3125,25.375,-36.0625,-0.22607421875,1.099609375,0.2939453125
1969/12/31/18:00:16.592000,64,1731185457,129090600,RU_myo,0.7504078662498376,0.6253398885415313,0.1945298413647496,0.089421467712381,-56.625,35.125,-36.75,-0.3056640625,0.90625,0.3173828125
1969/12/31/18:00:16.608000,65,1731185457,144587110,RU_myo,0.7572338872291726,0.6141614842253695,0.2023400238726992,0.0919838358902436,-56.0625,42.9375,-27.9375,-0.236328125,0.79638671875,0.35546875
1969/12/31/18:00:16.630000,66,1731185457,166835709,RU_myo,0.7629040948042093,0.6030476403444746,0.2117380834367391,0.0973543508450847,-56.6875,61.625,-25.125,-0.197265625,0.861328125,0.35400390625
1969/12/31/18:00:16.650000,67,1731185457,186352976,RU_myo,0.767383371882333,0.5917128863368863,0.2235251278900018,0.1050482646364536,-53.0,82.3125,-23.8125,-0.189453125,0.83740234375,0.3955078125
1969/12/31/18:00:16.667000,68,1731185457,204140430,RU_myo,0.7690326964690098,0.5825579851655075,0.2367710000478838,0.1146926293090935,-30.0,98.8125,-14.4375,-0.17724609375,0.66455078125,0.44921875
1969/12/31/18:00:16.690000,69,1731185457,226663883,RU_myo,0.7680475277409553,0.5757151936464031,0.2502578767971006,0.1265938625554113,-31.0,106.0625,-2.25,-0.13134765625,0.70703125,0.34375
1969/12/31/18:00:16.709000,70,1731185457,246217558,RU_myo,0.7668889161390048,0.568452441579318,0.2631984245774744,0.1395342297272974,-36.625,106.5,5.6875,-0.2890625,0.8603515625,0.26025390625
1969/12/31/18:00:16.727000,71,1731185457,264114007,RU_myo,0.7645591806361759,0.562585180258952,0.2757076336367241,0.1514347219510101,-25.0,101.8125,6.125,-0.30859375,0.80419921875,0.2568359375
1969/12/31/18:00:16.750000,72,1731185457,286639043,RU_myo,0.7605327345975318,0.5596568734771082,0.285962749726279,0.1630933761512524,-5.9375,93.5625,12.1875,-0.11962890625,0.7119140625,0.21142578125
1969/12/31/18:00:16.769000,73,1731185457,306205640,RU_myo,0.753823474607962,0.5602709047308894,0.2947541343224168,0.175973528525891,13.5,91.0625,32.375,-0.14990234375,0.7255859375,0.18408203125
1969/12/31/18:00:16.786000,74,1731185457,323299852,RU_myo,0.7468590075162663,0.5614260502725251,0.3022593825776847,0.1887900384314981,5.1875,82.4375,38.5,-0.1953125,0.9033203125,0.05419921875
1969/12/31/18:00:16.809000,75,1731185457,345931409,RU_myo,0.7417427308652677,0.5613732633120364,0.3085508150529895,0.1986810886246252,-11.3125,63.8125,25.875,-0.22412109375,1.0107421875,-0.06103515625
1969/12/31/18:00:16.830000,76,1731185457,366789617,RU_myo,0.7364275757077812,0.5642994560645203,0.3100747687190657,0.2075913953569965,4.4375,40.0625,34.1875,-0.01611328125,0.70556640625,-0.04296875
1969/12/31/18:00:16.847000,77,1731185457,383452949,RU_myo,0.7329528100378913,0.5649132459111161,0.3094662514067379,0.2188237694858294,-9.75,40.125,46.875,-0.03662109375,0.70556640625,0.08349609375
1969/12/31/18:00:16.869000,78,1731185457,405892514,RU_myo,0.7308113037235151,0.564115766225067,0.306229041241199,0.2321896099026352,-32.125,35.4375,52.6875,0.033203125,0.98681640625,0.06591796875
1969/12/31/18:00:16.899000,79,1731185457,435847295,RU_myo,0.7304974509131764,0.5606299370519323,0.3024410819915432,0.2461644568459927,-54.125,35.4375,49.5,0.03076171875,1.154296875,0.0654296875
1969/12/31/18:00:16.907000,80,1731185457,443206485,RU_myo,0.7330225662768409,0.5532003928859197,0.2993373857125179,0.2589292802186992,-66.0,35.9375,37.6875,-0.03369140625,1.0654296875,0.22802734375
1969/12/31/18:00:16.929000,81,1731185457,465764386,RU_myo,0.7351376744561526,0.5462260917226927,0.2959716525604354,0.2713124346527398,-66.25,33.0625,39.375,-0.0078125,0.91796875,0.158203125
1969/12/31/18:00:16.950000,82,1731185457,486985723,RU_myo,0.735522822214177,0.5437375352932687,0.2904246961074733,0.2810856926386958,-46.8125,12.25,40.6875,0.0634765625,0.984375,0.103515625
1969/12/31/18:00:16.966000,83,1731185457,503328405,RU_myo,0.7323366481402787,0.5448882528711675,0.2896263873500269,0.28791731699264,-2.3125,21.625,34.6875,-0.05419921875,0.93408203125,0.15966796875
1969/12/31/18:00:16.989000,84,1731185457,525950202,RU_myo,0.726413666765795,0.5511124272942075,0.2873060355824382,0.2933488011491816,26.1875,8.5,40.5,0.06298828125,0.83544921875,0.11669921875
1969/12/31/18:00:17.010000,85,1731185457,547060530,RU_myo,0.7202606417219536,0.5577747240724755,0.2856626951914189,0.2975042684536272,29.1875,7.125,33.0625,0.05810546875,1.1513671875,0.13671875
1969/12/31/18:00:17.027000,86,1731185457,563391508,RU_myo,0.7159179025191397,0.5611248425150014,0.2854760022237204,0.3018342593534952,17.75,16.75,18.6875,0.095703125,1.22265625,0.22314453125
1969/12/31/18:00:17.050000,87,1731185457,586533943,RU_myo,0.7139249691651532,0.562362409449261,0.2835312484415301,0.3060550440658411,-6.375,8.6875,17.875,0.09326171875,1.0927734375,0.12109375
1969/12/31/18:00:17.072000,88,1731185457,608328354,RU_myo,0.7136806984264153,0.5624844026684415,0.2801739998098911,0.3094732416200758,-17.5625,-2.0,19.5625,0.02880859375,1.0576171875,0.119140625
1969/12/31/18:00:17.087000,89,1731185457,623305163,RU_myo,0.7142134462665659,0.561616777976128,0.2772986656173838,0.3123958993241846,-16.1875,-1.3125,17.3125,-0.02294921875,0.9677734375,0.19580078125
1969/12/31/18:00:17.109000,90,1731185457,645837207,RU_myo,0.7117825536688088,0.5650434010215387,0.2759599455567005,0.3129499316233584,14.75,-4.9375,11.0,0.0380859375,0.9765625,0.1591796875
1969/12/31/18:00:17.130000,91,1731185457,666830076,RU_myo,0.7094128351224114,0.5681650894268977,0.2747433463161223,0.3137482337402508,13.75,-3.125,11.0625,0.0400390625,1.01220703125,0.1611328125
1969/12/31/18:00:17.146000,92,1731185457,683209089,RU_myo,0.7081149127513687,0.5695560943783313,0.2729059369805508,0.3157554041602302,7.1875,-1.4375,18.1875,-0.0185546875,0.93701171875,0.24658203125
1969/12/31/18:00:17.169000,93,1731185457,705875539,RU_myo,0.7061020356033937,0.572365040443726,0.271746737768526,0.3161833112401089,16.0625,-5.625,16.0625,-0.0576171875,0.94873046875,0.20263671875
1969/12/31/18:00:17.190000,94,1731185457,726898758,RU_myo,0.7052994266726157,0.5737615413866367,0.2704614244557646,0.3165454631522444,1.75,-6.0,11.3125,-0.04931640625,0.94482421875,0.1416015625
1969/12/31/18:00:17.207000,95,1731185457,743368177,RU_myo,0.7050001416445191,0.5741325828838395,0.269303950210876,0.317524739119895,-0.4375,-1.75,9.0,-0.01611328125,0.943359375,0.1953125
1969/12/31/18:00:17.229000,96,1731185457,765854710,RU_myo,0.703542050340154,0.5756641572755503,0.2691234513230729,0.3181382237005798,19.1875,0.8125,8.875,-0.025390625,0.865234375,0.30810546875
1969/12/31/18:00:17.250000,97,1731185457,786859287,RU_myo,0.7009092795655552,0.5790146674178225,0.2692424307379312,0.3177683279124166,24.875,-3.375,10.8125,-0.048828125,0.88720703125,0.19189453125
1969/12/31/18:00:17.272000,98,1731185457,809243578,RU_myo,0.6980107975274599,0.5834457164712302,0.2688037383972484,0.3164120299389955,22.1875,-9.75,7.8125,-0.0029296875,1.005859375,0.08642578125
1969/12/31/18:00:17.289000,99,1731185457,825810708,RU_myo,0.696442196847468,0.5851701438366937,0.2683225151044233,0.3170917802473791,10.4375,-0.0625,7.5625,0.03271484375,1.06103515625,0.18994140625
1969/12/31/18:00:17.310000,100,1731185457,847046176,RU_myo,0.695595835087531,0.5853601314925783,0.2685087819015486,0.3184383530757853,8.0625,6.5,4.9375,0.0205078125,1.01904296875,0.26416015625
1969/12/31/18:00:17.326000,101,1731185457,862712152,RU_myo,0.6961567451613047,0.5838438638726768,0.2695509150927068,0.3191150779222534,-9.1875,7.9375,-2.9375,-0.02001953125,1.1396484375,0.16943359375
1969/12/31/18:00:17.349000,102,1731185457,886037919,RU_myo,0.6990678765365417,0.5802269479050349,0.2687501842652923,0.3200220795146327,-28.5,2.875,-9.0,0.05615234375,1.15673828125,0.19140625
1969/12/31/18:00:17.370000,103,1731185457,907086450,RU_myo,0.7024401177101841,0.5776147752773264,0.2657040174133152,0.3199069044941844,-27.0625,-11.625,-7.875,0.10400390625,0.98486328125,0.1943359375
1969/12/31/18:00:17.386000,104,1731185457,922768825,RU_myo,0.7038262894654079,0.5771119215068452,0.2628285493398705,0.3201429961188157,-16.25,-11.1875,2.125,0.06884765625,0.92626953125,0.1298828125
1969/12/31/18:00:17.409000,105,1731185457,945732326,RU_myo,0.7011565293335718,0.5803600836513972,0.2633228229777164,0.3197229825584791,31.8125,-0.0625,0.5625,0.0830078125,0.9638671875,0.3046875
1969/12/31/18:00:17.430000,106,1731185457,966938236,RU_myo,0.6968102270805511,0.5843781634608616,0.2665531063122605,0.3192289319929294,44.9375,11.1875,-2.6875,0.06005859375,1.02880859375,0.29248046875
1969/12/31/18:00:17.446000,107,1731185457,982788191,RU_myo,0.694312146562134,0.5865793167878777,0.2684470171938695,0.3190478760510131,15.8125,6.1875,3.1875,-0.02978515625,1.02490234375,0.10205078125
1969/12/31/18:00:17.469000,108,1731185458,5953136,RU_myo,0.6939532263906959,0.5869517305807839,0.2682667279432763,0.3192953933723045,-2.375,-0.0625,3.6875,-0.013671875,0.88330078125,0.08349609375
1969/12/31/18:00:17.492000,109,1731185458,28389223,RU_myo,0.6937097330474724,0.5868302132440298,0.2677786712608237,0.3204554420148904,-2.25,2.9375,3.0,0.05419921875,0.85107421875,0.14599609375
1969/12/31/18:00:17.514000,110,1731185458,51076240,RU_myo,0.6934578203915551,0.5867015728900298,0.2667380226310268,0.3220998959780157,-5.5,3.0625,5.125,0.0849609375,0.9189453125,0.14013671875
1969/12/31/18:00:17.529000,111,1731185458,65853539,RU_myo,0.6935893021865974,0.5860380964792327,0.2657039718752317,0.3238744026579324,-12.3125,3.0,7.3125,0.0380859375,1.0146484375,0.1103515625
1969/12/31/18:00:17.552000,112,1731185458,88536273,RU_myo,0.6943117831181691,0.5852361649702862,0.2638689967841622,0.3252736256911405,-17.5625,-1.5625,6.625,0.05126953125,1.05908203125,0.09765625
1969/12/31/18:00:17.573000,113,1731185458,109605630,RU_myo,0.6961987197138522,0.5842551416009988,0.261059260408219,0.3252711710814587,-27.0,-11.0625,-0.8125,0.091796875,1.08349609375,0.03369140625
1969/12/31/18:00:17.589000,114,1731185458,125931806,RU_myo,0.6997286723452485,0.5822933997011227,0.2569659552140175,0.3244729258711916,-42.125,-19.25,-5.3125,0.11083984375,1.103515625,-0.01953125
