time,.header.seq,.header.stamp.secs,.header.stamp.nsecs,.header.frame_id,.orientation.x,.orientation.y,.orientation.z,.orientation.w,.angular_velocity.x,.angular_velocity.y,.angular_velocity.z,.linear_acceleration.x,.linear_acceleration.y,.linear_acceleration.z
1969/12/31/18:00:28.234,1,1730345467,354461700,RU_myo,-0.6211585477249979,-0.5160553720167885,0.5860020847703356,-0.06671182987751034,-1.3125,-1.125,2.5625,0.79345703125,0.53076171875,-0.21533203125
1969/12/31/18:00:28.252,2,1730345467,372361198,RU_myo,-0.62113227480709,-0.5156063139992431,0.5864045294631542,-0.06689210702452301,-1.5625,-0.5,2.3125,0.80224609375,0.54638671875,-0.224609375
1969/12/31/18:00:28.273,3,1730345467,393412688,RU_myo,-0.6211332546742041,-0.515240929150008,0.5867106197487593,-0.06701427863145093,-1.8125,0.25,2.0625,0.80224609375,0.55908203125,-0.23876953125
1969/12/31/18:00:28.294,4,1730345467,414424224,RU_myo,-0.6211817301878774,-0.5148643226434401,0.5870039183481042,-0.06689086031498463,-2.5,-0.4375,1.5625,0.80078125,0.5625,-0.232421875
1969/12/31/18:00:28.311,5,1730345467,432339283,RU_myo,-0.6214951167710918,-0.5141997799073404,0.5873168524686454,-0.06634245231564144,-5.25,-1.3125,1.125,0.80322265625,0.5634765625,-0.22265625
1969/12/31/18:00:28.333,6,1730345467,453432950,RU_myo,-0.6219362535397462,-0.5133568035841811,0.5876351569264648,-0.06591669811804965,-6.25,-1.0,0.6875,0.8125,0.54638671875,-0.21533203125
1969/12/31/18:00:28.357,7,1730345467,477394938,RU_myo,-0.6221175965146601,-0.5128670816749425,0.5878776306905923,-0.0658554779396957,-3.375,0.25,0.125,0.80224609375,0.52783203125,-0.224609375
1969/12/31/18:00:28.371,8,1730345467,492335009,RU_myo,-0.622134568014069,-0.5128200373250473,0.5878936681165027,-0.06591830996322912,0.1875,-0.3125,0.3125,0.7880859375,0.53271484375,-0.21826171875
1969/12/31/18:00:28.394,9,1730345467,514900421,RU_myo,-0.622134568014069,-0.5128200373250473,0.5878936681165027,-0.06591830996322912,0.4375,-0.1875,-0.0625,0.7919921875,0.5478515625,-0.2197265625
1969/12/31/18:00:28.414,10,1730345467,534447072,RU_myo,-0.6223102002435871,-0.512630774013916,0.5878866073701677,-0.06579544878997517,-2.1875,0.5625,-0.3125,0.8046875,0.55908203125,-0.2216796875
1969/12/31/18:00:28.438,11,1730345467,558425144,RU_myo,-0.623025786027335,-0.5120676278183133,0.5876876267297423,-0.06518334046602604,-6.1875,1.9375,-1.5625,0.8291015625,0.5771484375,-0.22998046875
1969/12/31/18:00:28.454,12,1730345467,574847433,RU_myo,-0.624055910946908,-0.5115122337062139,0.5871923637379172,-0.06414501343816141,-9.0625,3.625,-3.25,0.81494140625,0.58349609375,-0.24169921875
1969/12/31/18:00:28.475,13,1730345467,596109495,RU_myo,-0.6253183061019975,-0.5108139486351992,0.5866212044847533,-0.06262338526702288,-11.8125,3.1875,-3.6875,0.79443359375,0.591796875,-0.232421875
1969/12/31/18:00:28.492,14,1730345467,612473464,RU_myo,-0.6271849001073767,-0.509572472849016,0.5859259479399394,-0.06054568128712706,-17.25,4.5,-5.4375,0.82470703125,0.595703125,-0.2373046875
1969/12/31/18:00:28.514,15,1730345467,634994919,RU_myo,-0.6296191000382493,-0.5085291141448908,0.584515521623334,-0.057615396513775424,-21.625,7.0,-11.375,0.81884765625,0.60400390625,-0.244140625
1969/12/31/18:00:28.534,16,1730345467,654520791,RU_myo,-0.6322381404973235,-0.5085247790929336,0.5820081965230695,-0.05425810473039102,-19.25,10.125,-18.875,0.828125,0.6357421875,-0.24169921875
1969/12/31/18:00:28.552,17,1730345467,672394405,RU_myo,-0.6349912260804935,-0.5093235084238483,0.5787794883622953,-0.04888773280377502,-23.1875,8.25,-26.375,0.80029296875,0.71142578125,-0.24951171875
1969/12/31/18:00:28.574,18,1730345467,694825553,RU_myo,-0.637762037839348,-0.5098312089264115,0.5758108015098488,-0.04211463356389608,-30.4375,5.125,-30.6875,0.83984375,0.73779296875,-0.2890625
1969/12/31/18:00:28.594,19,1730345467,714561189,RU_myo,-0.6407254955908308,-0.5099925929850431,0.5727956540407647,-0.03582643035928917,-29.625,4.4375,-32.75,0.94775390625,0.765625,-0.25732421875
1969/12/31/18:00:28.612,20,1730345467,733067408,RU_myo,-0.6441557992096396,-0.5115283071040354,0.5679850168130478,-0.028197837714122938,-27.125,6.3125,-41.5,0.9423828125,0.88818359375,-0.20947265625
1969/12/31/18:00:28.634,21,1730345467,754978015,RU_myo,-0.6492202260854217,-0.5118323602474708,0.5621855318673329,-0.0220943613653213,-29.8125,16.375,-41.6875,0.9912109375,0.84130859375,-0.13818359375
1969/12/31/18:00:28.654,22,1730345467,774521867,RU_myo,-0.6590398865862318,-0.5074326372548555,0.5547946442923547,-0.01953072455154604,-44.5625,39.0625,-33.9375,1.13232421875,0.67919921875,0.03857421875
1969/12/31/18:00:28.672,23,1730345467,792390391,RU_myo,-0.6751584334138484,-0.496939067515418,0.5449118146373927,-0.016845392119166712,-79.875,63.125,-22.1875,1.2392578125,0.796875,0.20361328125
1969/12/31/18:00:28.694,24,1730345467,814937057,RU_myo,-0.6937921133416757,-0.48639301057621304,0.5310100629957402,-0.010131916144516421,-110.875,91.3125,-34.0,1.0576171875,0.96826171875,0.1552734375
1969/12/31/18:00:28.717,25,1730345467,837501099,RU_myo,-0.7138503902295957,-0.4761240504600784,0.5135377208782335,-0.0015868767224666118,-120.25,105.5625,-52.25,0.95947265625,0.91796875,0.15087890625
1969/12/31/18:00:28.731,26,1730345467,852296703,RU_myo,-0.7314729923130864,-0.47141405028170874,0.4925922837679533,0.008300402749652044,-93.6875,107.8125,-84.5625,0.9404296875,0.890625,0.31494140625
1969/12/31/18:00:28.753,27,1730345467,874114338,RU_myo,-0.7462644245714608,-0.47527284486284166,0.4656904849497216,0.018371276011778008,-50.8125,124.75,-125.75,0.92822265625,0.9384765625,0.39599609375
1969/12/31/18:00:28.775,28,1730345467,895307820,RU_myo,-0.7626372149899567,-0.47686951266238753,0.436097871236754,0.02825938619770708,-63.375,140.125,-126.6875,0.75048828125,0.78759765625,0.47314453125
1969/12/31/18:00:28.791,29,1730345467,911596410,RU_myo,-0.7854491321790842,-0.4708788604212941,0.39995711890353086,0.03710879418485377,-113.0,187.375,-120.0,0.7421875,0.84716796875,0.5498046875
1969/12/31/18:00:28.813,30,1730345467,934110486,RU_myo,-0.8155039577626497,-0.454902402305593,0.35510830224257883,0.04376291727534016,-175.375,248.625,-110.0625,0.69873046875,0.798828125,0.53125
1969/12/31/18:00:28.834,31,1730345467,955132497,RU_myo,-0.8497361045404864,-0.42849940314434787,0.3036297579608504,0.046322610310007124,-228.625,297.75,-87.875,0.64794921875,0.58447265625,0.57275390625
1969/12/31/18:00:28.851,32,1730345467,971703861,RU_myo,-0.882400161036063,-0.3970129373038864,0.24882732442551037,0.04284443996730642,-238.9375,326.0625,-60.3125,0.67578125,0.412109375,0.64501953125
1969/12/31/18:00:28.881,33,1730345468,1656000,RU_myo,-0.9083689911592265,-0.36913361946724466,0.19384397741864567,0.032103882910014994,-194.6875,337.8125,-31.8125,0.7021484375,0.28857421875,0.6328125
1969/12/31/18:00:28.894,34,1730345468,15206237,RU_myo,-0.926997332363783,-0.3472044126550505,0.14085916407239524,0.01684451008838002,-142.9375,331.25,-12.3125,0.70263671875,0.19873046875,0.599609375
1969/12/31/18:00:28.911,35,1730345468,31634794,RU_myo,-0.9384925053062294,-0.33305284525304635,0.09112111012695588,-0.002136127832848932,-85.25,316.3125,8.1875,0.5947265625,0.18408203125,0.49462890625
1969/12/31/18:00:28.933,36,1730345468,54134166,RU_myo,-0.9429409066469886,-0.32865610241385335,0.047482720088760984,-0.02435167778331058,-17.75,285.4375,33.5,0.4814453125,0.15380859375,0.43212890625
1969/12/31/18:00:28.954,37,1730345468,75211253,RU_myo,-0.9418298403429614,-0.332252569390039,0.01299959538576016,-0.04894683333042088,35.9375,236.6875,63.375,0.3662109375,0.13330078125,0.45703125
1969/12/31/18:00:28.977,38,1730345468,97726476,RU_myo,-0.935827377323244,-0.34392403777580904,-0.013366346809743065,-0.07592573256310674,85.25,194.375,92.5625,0.34619140625,0.19189453125,0.3681640625
1969/12/31/18:00:28.994,39,1730345468,114592658,RU_myo,-0.9256678388601307,-0.3615518083607447,-0.03875513138235531,-0.1044862754749485,121.5625,190.5625,104.75,0.36767578125,0.34423828125,0.22705078125
1969/12/31/18:00:29.014,40,1730345468,135207057,RU_myo,-0.912855390777294,-0.3802292628563577,-0.06744034276986761,-0.13256147013226469,131.4375,206.5625,97.125,0.35107421875,0.62255859375,0.2099609375
1969/12/31/18:00:29.030,41,1730345468,150943101,RU_myo,-0.899467251846996,-0.3959316049895815,-0.09735022505910013,-0.15722519106723631,118.1875,206.0,77.125,0.1884765625,0.90185546875,0.3095703125
1969/12/31/18:00:29.059,42,1730345468,180206459,RU_myo,-0.8882636915348421,-0.40537635283595036,-0.12346828692970906,-0.17723771885510387,79.25,177.3125,59.25,-0.0791015625,1.0517578125,0.3466796875
1969/12/31/18:00:29.075,43,1730345468,195281895,RU_myo,-0.8824023303671126,-0.40397157454004134,-0.14244895829830134,-0.19463141731503125,4.9375,140.1875,51.3125,-0.24755859375,0.982421875,0.1728515625
1969/12/31/18:00:29.090,44,1730345468,211041620,RU_myo,-0.8808622070505253,-0.3939559028969127,-0.15617864531575515,-0.2109235631931418,-51.5,117.3125,45.75,-0.2119140625,0.74853515625,0.134765625
1969/12/31/18:00:29.113,45,1730345468,234145859,RU_myo,-0.8763172288150578,-0.3904305134928211,-0.16741455346425016,-0.2271662296733281,-9.3125,101.625,58.875,-0.07275390625,0.47021484375,0.3271484375
1969/12/31/18:00:29.134,46,1730345468,255223149,RU_myo,-0.8658813583362627,-0.3996469397607562,-0.17730213194944971,-0.24309617609454673,68.8125,86.0,77.3125,-0.00537109375,0.42919921875,0.375
1969/12/31/18:00:29.150,47,1730345468,270989940,RU_myo,-0.8520519335831137,-0.41720700651630727,-0.18638826768589853,-0.25535314734702014,116.375,62.1875,77.0625,-0.10302734375,0.73291015625,0.31982421875
1969/12/31/18:00:29.173,48,1730345468,294152295,RU_myo,-0.8366811912831359,-0.43893873569978215,-0.19487366283223087,-0.2632900035885512,142.375,44.4375,64.3125,-0.10302734375,0.86669921875,0.267578125
1969/12/31/18:00:29.194,49,1730345468,315264700,RU_myo,-0.821659287174908,-0.459257679268453,-0.20140203874895615,-0.2709162575777625,132.9375,36.3125,65.1875,-0.07470703125,0.923828125,0.2841796875
1969/12/31/18:00:29.210,50,1730345468,330926791,RU_myo,-0.810797572640616,-0.4723803697582513,-0.20463712917305124,-0.27854573741300503,67.5,26.1875,59.0625,-0.083984375,1.17822265625,0.31787109375
1969/12/31/18:00:29.233,51,1730345468,354180281,RU_myo,-0.8067652002508732,-0.47451391421064676,-0.2053684014557976,-0.28598999382522067,-9.375,22.3125,43.0625,-0.11279296875,1.29736328125,0.3251953125
1969/12/31/18:00:29.254,52,1730345468,375237489,RU_myo,-0.8078883959326949,-0.4694626835018727,-0.20360472076992295,-0.2923461068608906,-45.875,15.0625,27.125,-0.07861328125,1.06103515625,0.42919921875
1969/12/31/18:00:29.277,53,1730345468,397669623,RU_myo,-0.8106724124420128,-0.46243054047076193,-0.19957078887942345,-0.2985627826294005,-50.875,7.625,25.0625,-0.01513671875,0.7783203125,0.49560546875
1969/12/31/18:00:29.293,54,1730345468,414186154,RU_myo,-0.8114763468066164,-0.45859155158731313,-0.19627767233228627,-0.3044256932815435,-30.0,8.4375,25.9375,0.03759765625,0.76220703125,0.48193359375
1969/12/31/18:00:29.316,55,1730345468,436521050,RU_myo,-0.8092201438564958,-0.4599353649673846,-0.1954847364637119,-0.30888175187101025,3.0625,8.25,27.8125,-0.0283203125,0.892578125,0.46875
1969/12/31/18:00:29.337,56,1730345468,457655254,RU_myo,-0.805120270494991,-0.46462860970879066,-0.19676377744662302,-0.31174608411828486,30.375,8.0,25.25,-0.07666015625,0.9404296875,0.513671875
1969/12/31/18:00:29.353,57,1730345468,474029815,RU_myo,-0.8014121574423445,-0.4690925171047034,-0.19780495029096326,-0.31394898620694695,35.625,6.375,20.4375,-0.04296875,0.87109375,0.5693359375
1969/12/31/18:00:29.376,58,1730345468,496603339,RU_myo,-0.7977580691263814,-0.4733083793187275,-0.19853928535445783,-0.3164544096412124,31.375,8.3125,18.1875,0.02587890625,0.869140625,0.5263671875
1969/12/31/18:00:29.397,59,1730345468,517598097,RU_myo,-0.7945698674247899,-0.4765954447131257,-0.1997562928090742,-0.3187678329794667,18.25,9.625,15.6875,-0.001953125,1.0,0.451171875
1969/12/31/18:00:29.413,60,1730345468,534127265,RU_myo,-0.792930354715581,-0.47776006902044094,-0.20055181231491684,-0.32060215157950644,2.8125,6.6875,13.375,-0.05859375,0.96923828125,0.40380859375
1969/12/31/18:00:29.436,61,1730345468,556534253,RU_myo,-0.7926805316905234,-0.4773294147175534,-0.20012314932346986,-0.3221256426133803,-9.1875,1.875,11.125,-0.06005859375,0.97509765625,0.42236328125
1969/12/31/18:00:29.457,62,1730345468,577646279,RU_myo,-0.7933402307057034,-0.475735602611813,-0.1991437166545665,-0.323463591256268,-12.3125,0.625,7.375,-0.03271484375,0.95458984375,0.50927734375
1969/12/31/18:00:29.473,63,1730345468,594115122,RU_myo,-0.7941926350022196,-0.4737814051734597,-0.1976174404162904,-0.32517162524335863,-11.375,0.75,6.75,0.0126953125,0.86962890625,0.53955078125
1969/12/31/18:00:29.496,64,1730345468,616556449,RU_myo,-0.7945189143867992,-0.4730005827698336,-0.19451004610160771,-0.3273774356099855,-3.0,-4.5,13.0,0.06640625,0.77294921875,0.57470703125
1969/12/31/18:00:29.517,65,1730345468,637667924,RU_myo,-0.7927989171658463,-0.4751910984644557,-0.19237122301052714,-0.32963102013954854,12.625,-3.8125,17.4375,0.07470703125,0.87890625,0.54736328125
1969/12/31/18:00:29.533,66,1730345468,654123258,RU_myo,-0.789691069565996,-0.47909999969804995,-0.19304373236241174,-0.33103673864486916,25.1875,3.8125,13.1875,0.0390625,0.9794921875,0.50732421875
1969/12/31/18:00:29.556,67,1730345468,676720259,RU_myo,-0.7874232385753259,-0.4814133084701729,-0.19590982761019968,-0.33139886726585177,23.4375,10.125,4.0625,-0.04541015625,0.95654296875,0.5205078125
1969/12/31/18:00:29.577,68,1730345468,697654347,RU_myo,-0.7856277395375636,-0.48296086878190964,-0.19854311969512853,-0.33184105188515645,22.375,11.6875,0.8125,-0.005859375,0.84619140625,0.525390625
1969/12/31/18:00:29.593,69,1730345468,714059778,RU_myo,-0.7828715633187148,-0.4852131385658207,-0.20147026042839927,-0.3333017546802449,24.875,16.8125,4.3125,0.03662109375,0.80615234375,0.4560546875
1969/12/31/18:00:29.616,70,1730345468,736514295,RU_myo,-0.7790820479637779,-0.48893272904330787,-0.20610733066773818,-0.3339097441762498,31.5,18.125,4.9375,-0.05029296875,0.87158203125,0.36181640625
1969/12/31/18:00:29.637,71,1730345468,757761053,RU_myo,-0.7744514924826316,-0.4947969303772318,-0.21184657028979542,-0.33244836311394865,43.875,13.1875,-1.625,-0.08203125,0.93017578125,0.3056640625
1969/12/31/18:00:29.653,72,1730345468,774112762,RU_myo,-0.7702038478226978,-0.500815592332255,-0.21659694579419606,-0.3302355800767526,44.875,7.375,-5.375,-0.04541015625,0.9013671875,0.31396484375
1969/12/31/18:00:29.676,73,1730345468,796710664,RU_myo,-0.7666702947155748,-0.5060683078953627,-0.21995540058549048,-0.3282242353908901,36.8125,3.8125,-6.625,0.015625,0.91064453125,0.3037109375
1969/12/31/18:00:29.698,74,1730345468,819133902,RU_myo,-0.7637343606105086,-0.5102751309784611,-0.2230660930183322,-0.3264515818208095,28.9375,5.125,-7.8125,0.01708984375,0.95068359375,0.29638671875
1969/12/31/18:00:29.713,75,1730345468,834152861,RU_myo,-0.7615140747641558,-0.5134742254541029,-0.22594574855950186,-0.3246368008071287,27.0625,3.625,-7.5625,-0.01904296875,0.92724609375,0.35107421875
1969/12/31/18:00:29.736,76,1730345468,856586036,RU_myo,-0.7590557089798261,-0.5170025657930455,-0.22844299418762476,-0.3230426845405017,33.8125,3.0,-5.0625,-0.00927734375,0.798828125,0.38134765625
1969/12/31/18:00:29.757,77,1730345468,877788268,RU_myo,-0.7552478950726733,-0.5223569077920817,-0.2322196558183048,-0.3206523184413596,41.5625,3.6875,-6.0625,-0.04052734375,0.912109375,0.2861328125
1969/12/31/18:00:29.779,78,1730345468,900239225,RU_myo,-0.7517216346998887,-0.5268215596922498,-0.2375335391939569,-0.3177285727244963,42.6875,8.8125,-10.875,-0.10595703125,1.02978515625,0.3486328125
1969/12/31/18:00:29.796,79,1730345468,916649959,RU_myo,-0.7482316398169633,-0.530841664202932,-0.24296167684431738,-0.31516053735846644,51.4375,12.25,-12.5,-0.0703125,0.84521484375,0.44140625
1969/12/31/18:00:29.825,80,1730345468,945219573,RU_myo,-0.7433059424026365,-0.5362251424541886,-0.2483993091040915,-0.31345917728712874,52.3125,14.0,-3.625,-0.08935546875,0.8359375,0.29150390625
1969/12/31/18:00:29.833,81,1730345468,954174324,RU_myo,-0.7396729138433784,-0.5392367516962,-0.25432932023973576,-0.3121286641963064,32.0,16.5,0.5625,-0.24462890625,1.08251953125,0.26171875
1969/12/31/18:00:29.862,82,1730345468,982732204,RU_myo,-0.7379912013866934,-0.5401885646273258,-0.26042081180259846,-0.3094289936346788,25.625,12.625,-7.5,-0.3359375,1.1796875,0.36962890625
1969/12/31/18:00:29.877,83,1730345468,997695923,RU_myo,-0.7388599034489829,-0.5390393744640193,-0.26518637704327036,-0.3052847544235761,4.6875,4.375,-23.0,-0.2509765625,0.99072265625,0.251953125
1969/12/31/18:00:29.893,84,1730345469,14157243,RU_myo,-0.741677572622334,-0.5351406317275037,-0.2690961502379749,-0.3018710725962857,-21.0625,5.6875,-30.4375,-0.18994140625,1.08349609375,0.2001953125
1969/12/31/18:00:29.916,85,1730345469,36650591,RU_myo,-0.7453761139062164,-0.5303625996761664,-0.27281022100718805,-0.2978330824418518,-22.875,3.6875,-35.75,-0.2099609375,1.181640625,0.29833984375
1969/12/31/18:00:29.937,86,1730345469,57766913,RU_myo,-0.7503693861056329,-0.524068476493621,-0.27616278748499296,-0.2933123440116854,-26.75,2.5,-43.1875,-0.1884765625,1.04931640625,0.37109375
1969/12/31/18:00:29.953,87,1730345469,73440914,RU_myo,-0.7560785932422754,-0.5162183356185959,-0.27965386779432566,-0.28923607147038616,-33.6875,6.0625,-45.375,-0.1845703125,0.85986328125,0.359375
1969/12/31/18:00:29.976,88,1730345469,96573301,RU_myo,-0.7612487996960347,-0.5082722684092501,-0.2837975562083349,-0.28568953991639046,-31.5,10.125,-40.375,-0.26416015625,0.87890625,0.38525390625
1969/12/31/18:00:29.997,89,1730345469,117696959,RU_myo,-0.7652120799479413,-0.5016783615546401,-0.28855660504018715,-0.2819652105088123,-21.4375,11.0,-35.375,-0.33447265625,0.89453125,0.39453125
1969/12/31/18:00:30.021,90,1730345469,141694101,RU_myo,-0.7690337689966739,-0.4956822690096806,-0.29281993680232055,-0.27774562992650287,-16.0625,7.1875,-36.0625,-0.32568359375,0.84814453125,0.42236328125
1969/12/31/18:00:30.036,91,1730345469,156651702,RU_myo,-0.7736601720949131,-0.48900010246327263,-0.29619539406568424,-0.2731247451975967,-24.25,3.625,-43.1875,-0.27001953125,0.89501953125,0.4169921875
1969/12/31/18:00:30.057,92,1730345469,177747277,RU_myo,-0.7788196319046196,-0.48068203282507516,-0.2993582238454791,-0.26975807327156326,-39.375,8.0625,-42.625,-0.23828125,0.82861328125,0.34619140625
1969/12/31/18:00:30.072,93,1730345469,193400142,RU_myo,-0.7832888541939311,-0.47281741884372636,-0.3017438129293124,-0.2680539697381756,-36.125,10.6875,-32.75,-0.203125,0.705078125,0.3671875
1969/12/31/18:00:30.096,94,1730345469,216658591,RU_myo,-0.7849856714439256,-0.4688430981209949,-0.3046076415935805,-0.2668292143953384,-7.625,14.1875,-21.5625,-0.1533203125,0.5341796875,0.353515625
1969/12/31/18:00:30.117,95,1730345469,237710129,RU_myo,-0.7828959537383067,-0.47005492950517913,-0.30862993748476897,-0.2662139187875346,19.4375,18.6875,-8.4375,-0.16748046875,0.6552734375,0.28662109375
1969/12/31/18:00:30.133,96,1730345469,253476522,RU_myo,-0.7789214476711267,-0.4737731879864418,-0.3133872626961714,-0.2657231045334236,32.1875,21.0625,-4.25,-0.19482421875,0.84521484375,0.27734375
1969/12/31/18:00:30.156,97,1730345469,276674792,RU_myo,-0.7753656488702325,-0.4771574813340269,-0.3171894897023456,-0.26555541075522526,30.4375,18.4375,-1.625,-0.18359375,0.81494140625,0.30322265625
1969/12/31/18:00:30.177,98,1730345469,297631204,RU_myo,-0.7720531662776919,-0.4813583654096566,-0.31907462081421134,-0.2653665744644588,26.125,8.3125,1.0,-0.14892578125,0.90478515625,0.25634765625
1969/12/31/18:00:30.193,99,1730345469,313497826,RU_myo,-0.7708316861455196,-0.48276157065804115,-0.31919633559311694,-0.2662207296094027,-0.6875,3.875,-1.0625,-0.11474609375,0.998046875,0.2236328125
1969/12/31/18:00:30.216,100,1730345469,336538991,RU_myo,-0.7715599882065283,-0.4814773569815932,-0.3177909237930227,-0.268111297911033,-15.8125,1.625,1.0,-0.11572265625,0.92333984375,0.29345703125
1969/12/31/18:00:30.239,101,1730345469,359245366,RU_myo,-0.772469885624938,-0.48025326143498753,-0.3154084197605814,-0.27048957360272774,-16.625,-1.5,7.625,-0.1162109375,0.82763671875,0.30029296875
1969/12/31/18:00:30.259,102,1730345469,380200791,RU_myo,-0.7730353127962266,-0.479347808834799,-0.31291268346014955,-0.27336374277706454,-14.25,0.4375,7.8125,-0.05810546875,0.82373046875,0.31689453125
1969/12/31/18:00:30.277,103,1730345469,398066209,RU_myo,-0.7720955031302874,-0.48018713292459897,-0.31137706560514794,-0.2762845895716395,2.125,6.1875,11.25,-0.04638671875,0.7958984375,0.35498046875
1969/12/31/18:00:30.298,104,1730345469,419062137,RU_myo,-0.7695456583762442,-0.4827588355742796,-0.31071115447644215,-0.2796461421746333,13.5,9.3125,18.75,-0.0947265625,0.85888671875,0.35400390625
1969/12/31/18:00:30.319,105,1730345469,440153249,RU_myo,-0.7672133560180169,-0.4848866528965988,-0.3098514206112061,-0.28330318977294044,7.25,9.5625,18.6875,-0.10693359375,1.001953125,0.357421875
1969/12/31/18:00:30.336,106,1730345469,456641002,RU_myo,-0.7667907142685201,-0.48427923573071524,-0.30796131361023177,-0.2875160024609199,-10.5,8.875,14.5625,-0.06103515625,0.9521484375,0.375
1969/12/31/18:00:30.358,107,1730345469,479184153,RU_myo,-0.7670935195216856,-0.48232477402974633,-0.30490884107966754,-0.2931909672831711,-23.0625,9.0625,19.0625,-0.02783203125,0.90625,0.36474609375
1969/12/31/18:00:30.379,108,1730345469,500109085,RU_myo,-0.7669803273142513,-0.48043838120615784,-0.3022269898034672,-0.2992974874790394,-23.5,11.75,22.625,-0.041015625,0.9072265625,0.34814453125
1969/12/31/18:00:30.396,109,1730345469,516613404,RU_myo,-0.7669847826312212,-0.4779999059097417,-0.30021470086440494,-0.3051582647534102,-25.9375,12.8125,22.6875,-0.09326171875,0.8818359375,0.32763671875
1969/12/31/18:00:30.418,110,1730345469,539047970,RU_myo,-0.7662160776220586,-0.47667257975372607,-0.29857647377147606,-0.3107221643439461,-17.625,12.75,24.375,-0.099609375,0.8818359375,0.32861328125
1969/12/31/18:00:30.439,111,1730345469,560096075,RU_myo,-0.7650198556774921,-0.47610051010292104,-0.29667024479044984,-0.31632213099133955,-12.8125,11.75,26.3125,-0.083984375,0.91552734375,0.3623046875
1969/12/31/18:00:30.456,112,1730345469,576597088,RU_myo,-0.7645983224115902,-0.4747613625510664,-0.2947804834968056,-0.3210849117343052,-22.4375,7.8125,22.1875,-0.13037109375,1.0419921875,0.33349609375
1969/12/31/18:00:30.478,113,1730345469,599154193,RU_myo,-0.7658267430249445,-0.47195873476346,-0.2917929278293162,-0.32499421474400936,-32.0,0.4375,17.0625,-0.13427734375,0.98974609375,0.3515625
1969/12/31/18:00:30.500,114,1730345469,620475979,RU_myo,-0.7678963559746467,-0.46859865054628336,-0.28764071894043153,-0.32865378134823336,-34.0625,-4.625,15.3125,-0.09765625,0.8994140625,0.390625
1969/12/31/18:00:30.516,115,1730345469,637232143,RU_myo,-0.7690533375561751,-0.4665219992285852,-0.2839778731568036,-0.3320704078758153,-21.375,-3.6875,17.0,-0.08349609375,0.86669921875,0.4375
1969/12/31/18:00:30.538,116,1730345469,659170301,RU_myo,-0.7688776488379682,-0.4662823652263912,-0.28233275151011594,-0.33420971622771184,-4.75,-0.1875,13.75,-0.11767578125,0.88671875,0.43896484375
1969/12/31/18:00:30.559,117,1730345469,680139373,RU_myo,-0.767402777116346,-0.46786302603578084,-0.2817797536142969,-0.3358531479617665,10.0625,2.3125,12.8125,-0.1025390625,0.91796875,0.44921875
1969/12/31/18:00:30.576,118,1730345469,696586125,RU_myo,-0.7655364792490889,-0.4698927970771534,-0.28142300134079157,-0.33757332908608073,15.625,3.25,13.625,-0.08837890625,0.89794921875,0.47509765625
1969/12/31/18:00:30.600,119,1730345469,720612159,RU_myo,-0.7638670012840083,-0.4713442674110256,-0.28141504817198487,-0.3393336950414738,11.8125,5.3125,13.6875,-0.1123046875,0.9140625,0.45947265625
1969/12/31/18:00:30.619,120,1730345469,740153647,RU_myo,-0.7628844332267257,-0.4720118565260397,-0.28104662520072576,-0.34091779552035917,0.5625,2.5625,10.9375,-0.11279296875,0.95361328125,0.3876953125
1969/12/31/18:00:30.636,121,1730345469,756595974,RU_myo,-0.7627799715294215,-0.4714124259956194,-0.2796493702630668,-0.343122819646216,-10.375,1.625,10.8125,-0.08349609375,0.95654296875,0.39013671875
1969/12/31/18:00:30.658,122,1730345469,779179108,RU_myo,-0.763418569710136,-0.46992749114781734,-0.27725721977721224,-0.3456713389430178,-18.9375,-1.0,11.875,-0.06787109375,0.9248046875,0.38427734375
1969/12/31/18:00:30.679,123,1730345469,800203306,RU_myo,-0.7643609511224848,-0.467807943975874,-0.27470366025249954,-0.34849097979155125,-19.875,-0.75,13.5,-0.08203125,0.859375,0.4130859375
1969/12/31/18:00:30.696,124,1730345469,816658952,RU_myo,-0.7643170470506884,-0.4673911959046691,-0.272878824352282,-0.35057391345996597,-6.625,-0.3125,11.625,-0.05029296875,0.8017578125,0.396484375
1969/12/31/18:00:30.719,125,1730345469,839224291,RU_myo,-0.7625338176888359,-0.4689088619580059,-0.2722027234586368,-0.35294806048459565,5.25,4.6875,14.0625,-0.02197265625,0.89453125,0.39013671875
1969/12/31/18:00:30.739,126,1730345469,860155061,RU_myo,-0.7598442094305075,-0.47146959982736303,-0.27244534545363736,-0.3551432493715761,13.25,6.0,18.125,-0.0791015625,1.0029296875,0.4130859375
1969/12/31/18:00:30.756,127,1730345469,876579291,RU_myo,-0.7587258524539838,-0.47225069548656107,-0.27182793973858144,-0.356964889881222,1.4375,2.3125,13.0,-0.08251953125,0.9658203125,0.41748046875
1969/12/31/18:00:30.778,128,1730345469,899064957,RU_myo,-0.7580643391738597,-0.472806089330963,-0.2706108429189996,-0.35855631532456533,0.5625,-0.125,10.4375,-0.03125,0.794921875,0.375
1969/12/31/18:00:30.799,129,1730345469,920228599,RU_myo,-0.7559851941906527,-0.4751226880418367,-0.26944979675076547,-0.3607514719351698,9.6875,0.5625,17.4375,-0.0107421875,0.82861328125,0.361328125
1969/12/31/18:00:30.816,130,1730345469,936628716,RU_myo,-0.7527559733718044,-0.4785438290261325,-0.268658326153939,-0.3635614831665185,20.875,2.5625,26.0625,-0.05712890625,0.94091796875,0.45947265625
1969/12/31/18:00:30.838,131,1730345469,959184556,RU_myo,-0.7509831143873965,-0.48025080269113557,-0.26792489818453236,-0.36551303308135863,9.0625,0.25,19.3125,-0.091796875,0.9580078125,0.4375
1969/12/31/18:00:30.859,132,1730345469,980191152,RU_myo,-0.7506827490906497,-0.48055902165364034,-0.2660346425435888,-0.3671021736406714,-7.4375,-4.625,14.3125,-0.0693359375,0.93115234375,0.35107421875
1969/12/31/18:00:30.875,133,1730345469,995941200,RU_myo,-0.7504553518457118,-0.48130212302011083,-0.263111013484618,-0.36869720075633905,-9.125,-8.5625,14.3125,-0.00341796875,0.92822265625,0.3388671875
1969/12/31/18:00:30.898,134,1730345470,19089654,RU_myo,-0.7499343266367525,-0.482013453106858,-0.25986493838047625,-0.3711222851788812,-6.5,-6.9375,18.6875,0.009765625,0.8955078125,0.38134765625
1969/12/31/18:00:30.919,135,1730345470,40070875,RU_myo,-0.7487832261083811,-0.4837277569594122,-0.2571825344217718,-0.37307945726632435,6.25,-8.1875,21.375,-0.02880859375,0.783203125,0.41259765625
1969/12/31/18:00:30.935,136,1730345470,55862741,RU_myo,-0.7459853328057151,-0.4880061131567126,-0.25535487461826983,-0.3743658701980084,19.875,-9.3125,23.1875,-0.01806640625,0.80322265625,0.333984375
1969/12/31/18:00:30.958,137,1730345470,79099404,RU_myo,-0.7423174435576355,-0.49373905437649196,-0.253949098301679,-0.37509520744102837,24.5625,-11.5625,24.1875,-0.02392578125,0.9365234375,0.294921875
1969/12/31/18:00:30.979,138,1730345470,100180803,RU_myo,-0.7394492624279584,-0.49929303531884517,-0.25108074163326355,-0.37533946549454805,18.5,-20.0625,24.9375,-0.021484375,0.99609375,0.3037109375
1969/12/31/18:00:30.995,139,1730345470,115913664,RU_myo,-0.7394092692781755,-0.5015044131786025,-0.2459001193497127,-0.3758994378443486,-4.4375,-24.5625,19.5625,0.02978515625,0.88671875,0.328125
1969/12/31/18:00:31.018,140,1730345470,139109577,RU_myo,-0.738538497456543,-0.5035683945553207,-0.24327034549721346,-0.37656247659754316,-10.5,-8.875,7.0625,0.1533203125,1.51904296875,0.38427734375
1969/12/31/18:00:31.040,141,1730345470,160284458,RU_myo,-0.7435966970208147,-0.49782651490469343,-0.2413759797043107,-0.3754601838535827,-49.125,-5.5,-19.1875,0.0390625,1.662109375,0.58251953125
1969/12/31/18:00:31.055,142,1730345470,175926669,RU_myo,-0.7548610234401185,-0.4831403510310461,-0.2351006356962594,-0.3761488104351108,-108.0,-8.5625,-24.125,0.04052734375,0.84326171875,0.4736328125
1969/12/31/18:00:31.078,143,1730345470,199187599,RU_myo,-0.7603980417996548,-0.4769653019234531,-0.23051797125590306,-0.37571316681263944,-45.0,-12.125,-16.3125,0.11279296875,0.51953125,0.353515625
1969/12/31/18:00:31.099,144,1730345470,220112704,RU_myo,-0.7570312049023378,-0.4809259831208015,-0.23197965251804142,-0.37656260353494225,49.4375,8.6875,3.1875,0.14501953125,0.47705078125,0.55859375
1969/12/31/18:00:31.115,145,1730345470,235931208,RU_myo,-0.7481723748910624,-0.4913562109672847,-0.23838496584749896,-0.37680204279120805,92.375,19.125,12.5625,0.0703125,0.71533203125,0.45654296875
1969/12/31/18:00:31.146,146,1730345470,266708445,RU_myo,-0.7398716415895219,-0.5015478966083223,-0.24406060337511326,-0.37613040725201874,71.3125,13.4375,9.625,0.06689453125,0.96826171875,0.25927734375
1969/12/31/18:00:31.159,147,1730345470,280364608,RU_myo,-0.7370719587314714,-0.506008413500259,-0.24510068611953206,-0.37497475486016063,10.5625,-2.5,0.625,0.08447265625,1.314453125,0.2158203125
1969/12/31/18:00:31.175,148,1730345470,296017432,RU_myo,-0.7426410424505636,-0.5011972584322838,-0.2393076534721121,-0.3741890393872786,-70.5625,-22.9375,-8.0,0.068359375,1.314453125,0.19775390625
1969/12/31/18:00:31.198,149,1730345470,319164392,RU_myo,-0.7589645426083778,-0.48467530622059735,-0.2233864274987264,-0.37304312701426656,-158.8125,-57.0625,-18.4375,0.1220703125,1.2529296875,0.0234375
1969/12/31/18:00:31.221,150,1730345470,341614422,RU_myo,-0.7802770677391031,-0.46169699002317677,-0.2006688305612961,-0.37112748133918544,-218.375,-81.0,-22.1875,0.15771484375,1.1689453125,-0.197265625
1969/12/31/18:00:31.242,151,1730345470,362748233,RU_myo,-0.8048002427964338,-0.43373893421962956,-0.17253130252411605,-0.366606131681063,-258.75,-105.1875,-31.875,0.14111328125,1.01220703125,-0.2919921875
1969/12/31/18:00:31.258,152,1730345470,379180968,RU_myo,-0.8300745976396982,-0.404204401159306,-0.14171261052271003,-0.357088925137113,-266.25,-126.75,-51.0625,0.13720703125,0.7958984375,-0.2138671875
1969/12/31/18:00:31.281,153,1730345470,401547472,RU_myo,-0.8528121959335295,-0.3794413098202786,-0.11162910658859411,-0.34099060607461745,-225.0625,-146.3125,-75.875,0.19482421875,0.59130859375,0.07763671875
1969/12/31/18:00:31.302,154,1730345470,422755982,RU_myo,-0.8708182659198798,-0.36461089995832363,-0.08459168184503457,-0.31871411442624137,-152.0,-159.6875,-98.125,0.3388671875,0.48974609375,0.36181640625
1969/12/31/18:00:31.318,155,1730345470,439166351,RU_myo,-0.8828832404382807,-0.3613071189958953,-0.06304565100046619,-0.29325687614447243,-67.125,-155.4375,-110.5625,0.47802734375,0.3662109375,0.51513671875
1969/12/31/18:00:31.341,156,1730345470,461681255,RU_myo,-0.8884317805603135,-0.36948313522787235,-0.04644477467928822,-0.2683543682849281,14.125,-145.375,-104.3125,0.5732421875,0.287109375,0.5439453125
1969/12/31/18:00:31.362,157,1730345470,482712780,RU_myo,-0.8870503467653164,-0.3896332333665735,-0.03130981339552823,-0.24565691796686379,90.0625,-150.25,-81.9375,0.55517578125,0.36962890625,0.49755859375
1969/12/31/18:00:31.380,158,1730345470,500496133,RU_myo,-0.8797922690329796,-0.4181378310887925,-0.012572820493985002,-0.2257614709089831,140.1875,-174.6875,-48.6875,0.4755859375,0.4208984375,0.490234375
1969/12/31/18:00:31.401,159,1730345470,521693114,RU_myo,-0.8694499601548237,-0.4476025556489876,0.012938606735422057,-0.20866554919060384,142.5,-204.0,-13.875,0.47216796875,0.5419921875,0.48779296875
1969/12/31/18:00:31.422,160,1730345470,542706449,RU_myo,-0.8597724996545988,-0.4707478732047931,0.043821726041882725,-0.19304752015386498,101.0,-218.3125,6.125,0.572265625,0.61767578125,0.33642578125
1969/12/31/18:00:31.438,161,1730345470,559157929,RU_myo,-0.8539597993833739,-0.48148147922637485,0.08056224522484659,-0.18010544368069872,23.125,-224.75,33.3125,0.67041015625,0.6220703125,0.2763671875
1969/12/31/18:00:31.461,162,1730345470,581610231,RU_myo,-0.8521326815379459,-0.48044610149453587,0.12352933300621706,-0.16667915436757844,-52.5625,-243.25,49.5625,0.7060546875,0.6279296875,0.2587890625
1969/12/31/18:00:31.482,163,1730345470,602713302,RU_myo,-0.851827537593711,-0.47153539839858216,0.17229412757949747,-0.14952908698893688,-103.25,-272.9375,51.75,0.77099609375,0.64990234375,0.25732421875
1969/12/31/18:00:31.498,164,1730345470,619224744,RU_myo,-0.8496551096595111,-0.46001368877981,0.22430016004588058,-0.12713394105457665,-117.25,-302.8125,38.4375,0.84521484375,0.52587890625,0.333984375
1969/12/31/18:00:31.521,165,1730345470,641662339,RU_myo,-0.844952803949906,-0.44554720231394923,0.2759951299813258,-0.10662615923869444,-117.875,-299.375,49.75,0.97119140625,0.279296875,0.51806640625
1969/12/31/18:00:31.542,166,1730345470,662740766,RU_myo,-0.8359507699885482,-0.4297850129414731,0.32883863245223754,-0.09130337679074747,-103.9375,-299.25,81.875,0.98876953125,0.14794921875,0.57275390625
1969/12/31/18:00:31.558,167,1730345470,679070624,RU_myo,-0.8201326420068152,-0.4188547642575363,0.38223625069866674,-0.07641063162617448,-65.0625,-318.1875,82.5625,0.83544921875,0.2041015625,0.50634765625
1969/12/31/18:00:31.581,168,1730345470,702113283,RU_myo,-0.7980783197540198,-0.4136262444916635,0.43376740734871666,-0.06188830041530866,-21.0625,-325.9375,70.4375,1.00439453125,0.31005859375,0.5810546875
1969/12/31/18:00:31.602,169,1730345470,722592277,RU_myo,-0.7730664839691673,-0.409909561529838,0.48156438958761494,-0.04937713449637268,-1.25,-312.875,68.0,1.1318359375,0.3603515625,0.51953125
1969/12/31/18:00:31.618,170,1730345470,739201101,RU_myo,-0.7470807213386985,-0.40491286808504295,0.5257641612427736,-0.0385747561998413,0.375,-295.875,71.125,1.234375,0.4375,0.46044921875
1969/12/31/18:00:31.641,171,1730345470,761576238,RU_myo,-0.7225209775082148,-0.3973316069926067,0.5652362538185147,-0.02447465044608837,-21.625,-280.875,56.1875,1.294921875,0.5830078125,0.5361328125
1969/12/31/18:00:31.662,172,1730345470,782812967,RU_myo,-0.6987167814142705,-0.38677220857985956,0.6017948519169032,-0.00671373567047255,-46.5625,-277.0,45.625,1.265625,0.66748046875,0.5947265625
1969/12/31/18:00:31.684,173,1730345470,805208741,RU_myo,-0.6774916818063503,-0.37249835442019424,0.6341566282854036,0.00976564586387532,-62.0,-249.5,55.125,1.2744140625,0.69677734375,0.58154296875
1969/12/31/18:00:31.701,174,1730345470,821611542,RU_myo,-0.6638947174220861,-0.3579184171152995,0.6560210005380694,0.02783267363652397,-85.125,-185.125,28.0625,1.138671875,0.61572265625,0.61181640625
1969/12/31/18:00:31.731,175,1730345470,851720085,RU_myo,-0.6569076264169191,-0.3486865436885496,0.6671002840041742,0.043211985459739734,-69.3125,-114.125,-3.5,1.09130859375,0.55712890625,0.7021484375
1969/12/31/18:00:31.744,176,1730345470,865049273,RU_myo,-0.6582510534046105,-0.34386522344752674,0.6680775179014249,0.046202693317319445,-5.3125,-54.125,-6.9375,1.107421875,0.39306640625,0.64013671875
1969/12/31/18:00:31.760,177,1730345470,881514877,RU_myo,-0.6582632307649093,-0.34954784632272934,0.6654043339637498,0.041747987931682703,58.3125,-16.5625,-22.625,1.10546875,0.46875,0.4453125
1969/12/31/18:00:31.766,178,1730345470,886989009,RU_myo,-0.6590519236966615,-0.3593718954182203,0.6598453738733662,0.0332638727926172,83.0625,14.0625,-25.1875,1.19140625,0.59521484375,0.3037109375
1969/12/31/18:00:31.796,179,1730345470,917053764,RU_myo,-0.6607708231567656,-0.37030265879291496,0.6524699888736214,0.023254543102043942,88.125,31.3125,-29.9375,1.17724609375,0.541015625,0.25634765625
1969/12/31/18:00:31.807,180,1730345470,927415844,RU_myo,-0.6608216411478597,-0.38073385032606893,0.6466616133704233,0.013610716355035808,78.5,35.1875,-24.125,0.9638671875,0.4375,0.00732421875
1969/12/31/18:00:31.826,181,1730345470,947075015,RU_myo,-0.657879334495246,-0.3906749809911931,0.6438416457547408,0.005981276072041387,69.1875,21.625,-17.25,0.85693359375,0.48388671875,-0.21337890625
1969/12/31/18:00:31.849,182,1730345470,969438272,RU_myo,-0.6546368154376833,-0.39988629635909945,0.6415147834295627,-0.0006103270701451457,63.125,16.0,-16.75,0.88525390625,0.50732421875,-0.21923828125
1969/12/31/18:00:31.865,183,1730345470,985841949,RU_myo,-0.6531839089929999,-0.4069124576019745,0.6385357929251323,-0.006713719864439357,51.1875,19.5,-17.125,0.9013671875,0.44189453125,-0.1513671875
1969/12/31/18:00:31.886,184,1730345471,7156880,RU_myo,-0.6523890233863134,-0.4132590585975047,0.6351775251549596,-0.012450871060979318,45.625,22.0,-17.1875,0.86279296875,0.40625,-0.14013671875
1969/12/31/18:00:31.909,185,1730345471,29477435,RU_myo,-0.6512487927254483,-0.4195580319770133,0.6320226099973775,-0.01983653773531122,51.125,26.125,-9.9375,0.841796875,0.40087890625,-0.17919921875
1969/12/31/18:00:31.925,186,1730345471,45862873,RU_myo,-0.6486036594124865,-0.42699079714404403,0.6294391210615389,-0.028258539033403716,60.6875,24.5625,-5.4375,0.81689453125,0.43310546875,-0.2392578125
1969/12/31/18:00:31.946,187,1730345471,66916592,RU_myo,-0.6450156506257424,-0.43353010658541336,0.6282310836384147,-0.03649880384880715,58.4375,17.8125,2.625,0.8125,0.4638671875,-0.27783203125
1969/12/31/18:00:31.969,188,1730345471,89463263,RU_myo,-0.6409752402101282,-0.4393201084586272,0.6279140422092743,-0.04327284758226822,48.1875,14.875,4.9375,0.80029296875,0.49365234375,-0.37890625
1969/12/31/18:00:31.985,189,1730345471,105990241,RU_myo,-0.6374016852348279,-0.44471020574748216,0.6274527745105842,-0.04748621192307729,36.625,12.8125,3.0,0.8037109375,0.6044921875,-0.42724609375
1969/12/31/18:00:32.006,190,1730345471,126898319,RU_myo,-0.6355560858013826,-0.45025422500305384,0.6253022278915936,-0.048339615860433595,25.0625,12.3125,-9.5,0.81494140625,0.70068359375,-0.36083984375
1969/12/31/18:00:32.032,191,1730345471,152402321,RU_myo,-0.6351956798841769,-0.4531270036956019,0.6237210197690404,-0.046631065574278,3.0625,6.1875,-12.25,0.81396484375,0.64404296875,-0.30126953125
1969/12/31/18:00:32.044,192,1730345471,164527889,RU_myo,-0.6354928599328777,-0.45196164308518627,0.6243845521622493,-0.04498254300523731,-15.25,0.9375,-1.5625,0.84521484375,0.50244140625,-0.29833984375
1969/12/31/18:00:32.066,193,1730345471,187018812,RU_myo,-0.63567323594393,-0.4490300525049921,0.6263349733323677,-0.0446771779847294,-17.8125,-1.5,5.625,0.85791015625,0.384765625,-0.279296875
1969/12/31/18:00:32.098,194,1730345471,218357005,RU_myo,-0.6351320607124137,-0.44738785364424294,0.627990944903904,-0.04559327785433144,-5.3125,-2.625,4.875,0.82421875,0.3515625,-0.23193359375
1969/12/31/18:00:32.104,195,1730345471,224516689,RU_myo,-0.6334883812177998,-0.44763501183652993,0.6293379611462313,-0.04742465287659991,8.875,-4.375,4.0,0.8115234375,0.40087890625,-0.21826171875
1969/12/31/18:00:32.126,196,1730345471,246911811,RU_myo,-0.6321270384593057,-0.44823220724583773,0.630173956946252,-0.04882703782634398,9.75,-3.0,6.875,0.80029296875,0.5029296875,-0.21435546875
