time,.header.seq,.header.stamp.secs,.header.stamp.nsecs,.header.frame_id,.orientation.x,.orientation.y,.orientation.z,.orientation.w,.angular_velocity.x,.angular_velocity.y,.angular_velocity.z,.linear_acceleration.x,.linear_acceleration.y,.linear_acceleration.z
1969/12/31/18:00:03.136000,1,1731186106,297852309,RU_myo,0.6468657760556615,0.2585509933357031,-0.7008221212182587,-0.1535070227193799,-6.5625,44.5,-124.8125,1.14404296875,0.97900390625,0.21044921875
1969/12/31/18:00:03.152000,2,1731186106,313772319,RU_myo,0.6529658445006575,0.2759449039995768,-0.6848267690500446,-0.168826278359396,-16.25,70.9375,-144.9375,1.0966796875,0.81982421875,0.26513671875
1969/12/31/18:00:03.175000,3,1731186106,336853924,RU_myo,0.6586909682441551,0.2988889614058216,-0.6660151821238157,-0.1822508553722245,9.9375,88.75,-167.1875,0.98828125,0.63232421875,0.302734375
1969/12/31/18:00:03.203000,4,1731186106,365394473,RU_myo,0.6627660479008427,0.3269580733589478,-0.6458596849513507,-0.1915851021604885,45.5,100.625,-176.375,0.95947265625,0.61865234375,0.26416015625
1969/12/31/18:00:03.212000,5,1731186106,373686475,RU_myo,0.6664471463325135,0.3556541369795362,-0.6243326183565601,-0.1989148502516403,55.375,108.9375,-173.6875,0.95458984375,0.7255859375,0.29248046875
1969/12/31/18:00:03.235000,6,1731186106,396808643,RU_myo,0.6728580934564425,0.3803747857783517,-0.5986996588093473,-0.210085046959096,15.0,123.6875,-179.1875,0.92333984375,0.83251953125,0.2177734375
1969/12/31/18:00:03.257000,7,1731186106,419327989,RU_myo,0.6851349915331169,0.3977139959759278,-0.5661748045845161,-0.227727274245885,-58.8125,149.25,-187.6875,0.8955078125,0.83544921875,0.13330078125
1969/12/31/18:00:03.272000,8,1731186106,433727095,RU_myo,0.7022141199093758,0.4071071864229062,-0.5281407022664779,-0.249452334469328,-120.125,166.6875,-185.0,0.8076171875,0.78173828125,0.259765625
1969/12/31/18:00:03.295000,9,1731186106,456891664,RU_myo,0.7236322598734624,0.4075314270559301,-0.4852901567353153,-0.2734372911802556,-179.8125,181.6875,-172.6875,0.75439453125,0.70947265625,0.3310546875
1969/12/31/18:00:03.317000,10,1731186106,479386005,RU_myo,0.7489613825634162,0.3991083432957524,-0.4379266498160305,-0.296630455485144,-232.125,200.5625,-149.9375,0.68408203125,0.57861328125,0.30517578125
1969/12/31/18:00:03.338000,11,1731186106,500309758,RU_myo,0.7760151636944258,0.383735042799029,-0.3890451984732004,-0.3149471641232686,-254.3125,211.5625,-113.375,0.66015625,0.38671875,0.40771484375
1969/12/31/18:00:03.355000,12,1731186106,516870865,RU_myo,0.8027421771158203,0.3672521046005087,-0.3397249815865766,-0.3245270799669112,-240.5,231.8125,-73.375,0.6572265625,0.3935546875,0.4326171875
1969/12/31/18:00:03.377000,13,1731186106,539300376,RU_myo,0.8272173878476985,0.3532138289289922,-0.2923611958821276,-0.3247711739642591,-201.25,242.4375,-35.3125,0.5888671875,0.271484375,0.498046875
1969/12/31/18:00:03.401000,14,1731186106,563379426,RU_myo,0.8477884899650177,0.3449748412730223,-0.2498809271358374,-0.3159217583915717,-140.8125,242.125,2.125,0.52880859375,0.302734375,0.6142578125
1969/12/31/18:00:03.415000,15,1731186106,576834522,RU_myo,0.8626856930838599,0.3485167190822725,-0.2141150000946781,-0.2974294171782686,-45.8125,241.9375,35.5,0.48291015625,0.23486328125,0.6025390625
1969/12/31/18:00:03.437000,16,1731186106,599127727,RU_myo,0.8704794017098857,0.3641340702987784,-0.1868277554784714,-0.2734362445421601,49.6875,223.1875,52.8125,0.43896484375,0.166015625,0.5634765625
1969/12/31/18:00:03.458000,17,1731186106,620341444,RU_myo,0.8719759901516934,0.3916140244164401,-0.1655326113181711,-0.2426835039089411,136.75,219.875,76.125,0.47412109375,0.2685546875,0.50048828125
1969/12/31/18:00:03.475000,18,1731186106,636940272,RU_myo,0.8694047297249887,0.4243261500314603,-0.1451449345188165,-0.2074022235050204,175.5,228.375,90.6875,0.44384765625,0.5419921875,0.4794921875
1969/12/31/18:00:03.498000,19,1731186106,660060130,RU_myo,0.8610980604930696,0.4605788180096897,-0.1269552002995169,-0.1739530388719342,203.8125,210.875,79.0,0.3134765625,1.0341796875,0.46533203125
1969/12/31/18:00:03.518000,20,1731186106,680483696,RU_myo,0.8525044569822641,0.4897002404502544,-0.1083407611615607,-0.1472823981311808,158.4375,185.8125,52.8125,0.07666015625,1.173828125,0.07177734375
1969/12/31/18:00:03.535000,21,1731186106,696856021,RU_myo,0.8560574538291108,0.4927594883966069,-0.0853921125067326,-0.1306212442919284,-12.375,163.125,19.5,-0.0634765625,0.8671875,-0.0625
1969/12/31/18:00:03.557000,22,1731186106,719344061,RU_myo,0.8666792220885621,0.4811629204679297,-0.0632354161619656,-0.1155450220025106,-101.6875,147.8125,25.125,-0.0009765625,0.6572265625,0.03369140625
1969/12/31/18:00:03.578000,23,1731186106,740420691,RU_myo,0.8718001152411262,0.4777413359932994,-0.0496235730372495,-0.0962563034191175,-37.125,120.875,61.75,0.0732421875,0.56884765625,0.091796875
1969/12/31/18:00:03.595000,24,1731186106,756952803,RU_myo,0.8686968403053146,0.4873296495923013,-0.0430930276317841,-0.0775796573937643,39.6875,92.375,64.3125,0.12060546875,0.61865234375,0.07421875
1969/12/31/18:00:03.617000,25,1731186106,779400073,RU_myo,0.8639104128306341,0.4983018659283098,-0.0381478033078385,-0.06244032445427,50.5,70.8125,56.5,0.00732421875,0.67626953125,0.07470703125
1969/12/31/18:00:03.638000,26,1731186106,800337296,RU_myo,0.8556772390712836,0.5139312613581716,-0.0373546237471735,-0.0479140190221098,87.1875,48.4375,64.5625,-0.00537109375,0.748046875,0.13232421875
1969/12/31/18:00:03.655000,27,1731186106,816820454,RU_myo,0.8429965181540984,0.5353037045986129,-0.0405292656617421,-0.0341202703387257,141.875,28.75,68.375,0.072265625,1.06494140625,0.2236328125
1969/12/31/18:00:03.677000,28,1731186106,839516145,RU_myo,0.8322635063783406,0.5522176708621083,-0.0421777838582642,-0.0247817369702681,96.9375,23.375,41.6875,0.1025390625,1.4091796875,0.28759765625
1969/12/31/18:00:03.698000,29,1731186106,860368917,RU_myo,0.8302794192418642,0.5554931261133724,-0.0403451221141566,-0.0208744807307739,13.875,21.125,12.125,0.052734375,1.18359375,0.3525390625
1969/12/31/18:00:03.715000,30,1731186106,876826259,RU_myo,0.8309754772193295,0.5544719579154098,-0.0416891619612753,-0.0173959167773989,-4.5625,4.9375,20.3125,0.05322265625,0.78125,0.3486328125
1969/12/31/18:00:03.737000,31,1731186106,899286157,RU_myo,0.8316359922541792,0.5532439364250921,-0.0459612405260474,-0.0137944759082161,-11.375,-6.75,26.375,0.1240234375,0.865234375,0.28515625
1969/12/31/18:00:03.758000,32,1731186106,920240997,RU_myo,0.8321824232082887,0.5522043701602896,-0.0490739818292111,-0.0115970852581469,-15.5625,-7.25,20.9375,0.0810546875,1.0732421875,0.30419921875
1969/12/31/18:00:03.774000,33,1731186106,936128138,RU_myo,0.8342340148313145,0.5489538139737228,-0.0505984780725168,-0.0119629694839726,-31.875,-7.8125,4.8125,0.0654296875,1.013671875,0.27880859375
1969/12/31/18:00:03.797000,34,1731186106,959387041,RU_myo,0.8363111850600623,0.5455371020337788,-0.0530400248005542,-0.0126343902574392,-19.5,-11.75,1.5625,0.12744140625,0.76708984375,0.38818359375
1969/12/31/18:00:03.818000,35,1731186106,980338423,RU_myo,0.8348046723661925,0.5474419175588492,-0.057130743096787,-0.0120243123825502,19.875,-14.6875,6.1875,0.2119140625,0.85888671875,0.45703125
1969/12/31/18:00:03.835000,36,1731186106,996921210,RU_myo,0.8314718565444676,0.5520968244343496,-0.0608557804268708,-0.0118415460409357,30.6875,-16.8125,8.125,0.13818359375,1.02099609375,0.38720703125
1969/12/31/18:00:03.857000,37,1731186107,19320079,RU_myo,0.8301498681770896,0.5537791157981571,-0.0634773812884474,-0.0122682246528633,8.0625,-13.5625,4.8125,0.103515625,0.92919921875,0.3193359375
1969/12/31/18:00:03.878000,38,1731186107,40427740,RU_myo,0.8286387595353497,0.555681148115043,-0.0664693288990863,-0.012573628790828,15.75,-13.6875,2.0625,0.1787109375,0.93994140625,0.40966796875
1969/12/31/18:00:03.902000,39,1731186107,64324243,RU_myo,0.8274721967881706,0.5572024551507863,-0.0680557276254931,-0.0135501089980802,17.9375,-8.8125,-7.6875,0.2119140625,0.97412109375,0.49853515625
1969/12/31/18:00:03.917000,40,1731186107,79380638,RU_myo,0.8275799658579626,0.5570707536238384,-0.067871444946829,-0.013305732912238,7.375,2.75,-4.3125,0.16943359375,0.85693359375,0.470703125
1969/12/31/18:00:03.938000,41,1731186107,100373838,RU_myo,0.8271264339154613,0.557765578416315,-0.0679963727681959,-0.0116582649898792,10.9375,5.5,3.875,0.14697265625,0.806640625,0.40771484375
1969/12/31/18:00:03.954000,42,1731186107,116080789,RU_myo,0.8264419713186125,0.5587944052748817,-0.0681784107801248,-0.0097048946410383,9.6875,4.9375,8.9375,0.1005859375,0.87939453125,0.37646484375
1969/12/31/18:00:03.977000,43,1731186107,139312460,RU_myo,0.8263342232275056,0.5589872075873464,-0.0681185546699583,-0.0080570333480595,1.6875,4.5625,10.5625,0.06005859375,0.9541015625,0.37646484375
1969/12/31/18:00:03.998000,44,1731186107,160326610,RU_myo,0.8270596523032225,0.5580058554506317,-0.067446562051296,-0.0072634759132164,-5.9375,5.4375,3.0,0.091796875,0.92919921875,0.3818359375
1969/12/31/18:00:04.015000,45,1731186107,176815377,RU_myo,0.8271890128585202,0.5578886937372252,-0.0669588508785269,-0.0059207005790493,5.0,6.9375,2.1875,0.12890625,0.8310546875,0.4169921875
1969/12/31/18:00:04.037000,46,1731186107,199313349,RU_myo,0.8250209879037216,0.5611021633349791,-0.0670173148419239,-0.0036621483520177,23.5625,7.0,7.3125,0.13916015625,0.91064453125,0.361328125
1969/12/31/18:00:04.058000,47,1731186107,220390910,RU_myo,0.8223185602982533,0.5650998538629178,-0.0667157204873805,-0.0018311725659848,26.125,6.9375,5.25,0.13232421875,1.03857421875,0.359375
1969/12/31/18:00:04.074000,48,1731186107,236167460,RU_myo,0.8205764555961128,0.5677627335580959,-0.0655533407698769,-0.0015869523836283,17.625,5.1875,-2.3125,0.0869140625,0.94921875,0.34521484375
1969/12/31/18:00:04.097000,49,1731186107,259282970,RU_myo,0.8200395263968879,0.5685648074720514,-0.0653101818566929,-0.001953201700387,3.0,-0.625,-0.625,0.06494140625,0.857421875,0.28076171875
1969/12/31/18:00:04.118000,50,1731186107,280438481,RU_myo,0.819054454750682,0.56984070270157,-0.0665302448526897,-0.0022583661096784,3.3125,-6.5,2.0625,0.10693359375,0.95361328125,0.2626953125
1969/12/31/18:00:04.134000,51,1731186107,296244951,RU_myo,0.8176557231477423,0.5716753883996533,-0.0679345192492861,-0.0033570517149242,7.9375,-9.625,-3.25,0.1474609375,1.03955078125,0.3017578125
1969/12/31/18:00:04.157000,52,1731186107,319021237,RU_myo,0.8173006132714192,0.5721104292899934,-0.0684237481312368,-0.0052492795176506,2.5,-7.9375,-9.4375,0.13720703125,0.9541015625,0.34423828125
1969/12/31/18:00:04.180000,53,1731186107,341958144,RU_myo,0.8163906225970897,0.5733351116302403,-0.0689125243298777,-0.0066532020832211,13.5625,-7.0,-7.5625,0.1220703125,0.83203125,0.376953125
1969/12/31/18:00:04.194000,54,1731186107,356186110,RU_myo,0.8132715207385518,0.5776034524728997,-0.0701327662360099,-0.0067141899790784,36.3125,-7.1875,0.1875,0.12060546875,0.826171875,0.37353515625
1969/12/31/18:00:04.201000,55,1731186107,363694106,RU_myo,0.8079623386758683,0.5849288427537089,-0.0708042844197331,-0.0064700466797342,56.0,-5.75,3.5625,0.06103515625,0.9677734375,0.37451171875
1969/12/31/18:00:04.223000,56,1731186107,384642945,RU_myo,0.802363076632136,0.592692694872426,-0.0698290878407884,-0.0072636900813407,56.375,-2.1875,-5.125,0.03076171875,1.02099609375,0.34033203125
1969/12/31/18:00:04.245000,57,1731186107,407354331,RU_myo,0.7989465350132259,0.5975160540334991,-0.0675097308980539,-0.0100715240489863,30.5625,-2.125,-14.4375,-0.02587890625,1.00341796875,0.26171875
1969/12/31/18:00:04.261000,58,1731186107,423668571,RU_myo,0.7964300816600269,0.6009238315406932,-0.066592981230157,-0.0124518498358863,21.3125,-6.5,-8.5,-0.01708984375,0.89404296875,0.220703125
1969/12/31/18:00:04.283000,59,1731186107,444720043,RU_myo,0.7930416911170106,0.6052947318407907,-0.0669565716274425,-0.014831765638531,29.375,-10.75,-11.8125,0.08642578125,0.9296875,0.23193359375
1969/12/31/18:00:04.305000,60,1731186107,467312875,RU_myo,0.7906766206408125,0.6083583354891908,-0.0663474978104495,-0.01812806517912,19.1875,-8.5625,-20.6875,0.12060546875,1.0244140625,0.2412109375
1969/12/31/18:00:04.321000,61,1731186107,483490832,RU_myo,0.7909255461685165,0.6080568213405434,-0.0648219578662575,-0.0224008084151756,-4.25,-8.3125,-23.375,0.07373046875,1.1337890625,0.2919921875
1969/12/31/18:00:04.343000,62,1731186107,504810492,RU_myo,0.792145218528716,0.606530053669275,-0.0620141425508688,-0.0279551941813955,-10.25,-6.75,-34.6875,0.08447265625,1.21484375,0.3759765625
1969/12/31/18:00:04.368000,63,1731186107,530255467,RU_myo,0.7955285697666253,0.6022162870649524,-0.0568278292375299,-0.0352198254243338,-26.1875,-1.625,-48.8125,0.05322265625,1.130859375,0.439453125
1969/12/31/18:00:04.382000,64,1731186107,543821370,RU_myo,0.8000296306222512,0.5963446624841225,-0.0496852154823004,-0.0430930738703982,-42.4375,5.125,-56.125,0.00732421875,1.0615234375,0.3740234375
1969/12/31/18:00:04.403000,65,1731186107,564729394,RU_myo,0.8041448445002253,0.5908252064335621,-0.0415042500387213,-0.0505375279883253,-37.125,12.0625,-60.125,0.01708984375,1.03076171875,0.4140625
1969/12/31/18:00:04.425000,66,1731186107,587279681,RU_myo,0.8080745282452173,0.5854099856786675,-0.0312511638689894,-0.0577414082423125,-31.0625,21.9375,-65.4375,-0.01806640625,0.92236328125,0.4814453125
1969/12/31/18:00:04.441000,67,1731186107,603575031,RU_myo,0.8111014867573814,0.5811195165488018,-0.0192261997387745,-0.0635990480247717,-22.5625,35.875,-66.4375,-0.02685546875,0.78662109375,0.4580078125
1969/12/31/18:00:04.463000,68,1731186107,624710950,RU_myo,0.81155919024574,0.5803478324952238,-0.0072024657377404,-0.0672026676038327,-1.8125,43.875,-55.875,-0.0634765625,0.76904296875,0.38916015625
1969/12/31/18:00:04.485000,69,1731186107,647052465,RU_myo,0.8110013411909537,0.580952116012305,0.0037843067023285,-0.0689720415101812,4.875,45.6875,-44.375,-0.09814453125,0.921875,0.38671875
1969/12/31/18:00:04.501000,70,1731186107,663510421,RU_myo,0.8124638050510786,0.5786920092922603,0.0156254777321821,-0.0690939093469927,-11.4375,54.3125,-39.6875,-0.10107421875,0.90234375,0.44580078125
1969/12/31/18:00:04.523000,71,1731186107,684762152,RU_myo,0.8147152803689632,0.5750859583185775,0.0281378292066296,-0.0687271056109868,-18.8125,59.375,-40.0,-0.0888671875,0.759765625,0.435546875
1969/12/31/18:00:04.545000,72,1731186107,707023213,RU_myo,0.8143643946972277,0.575096786601505,0.0393692875565666,-0.0672634959493587,-2.25,57.625,-30.875,-0.10205078125,0.70458984375,0.2724609375
1969/12/31/18:00:04.561000,73,1731186107,723662785,RU_myo,0.8133110377501813,0.5761843299333368,0.0488902169784536,-0.0643934817881006,1.5,54.0,-17.5,-0.126953125,0.70849609375,0.2099609375
1969/12/31/18:00:04.590000,74,1731186107,752269462,RU_myo,0.8116221315718258,0.5782739019712324,0.0564601392572714,-0.060671760455922,13.25,49.3125,-9.0,-0.1064453125,0.7177734375,0.27978515625
1969/12/31/18:00:04.605000,75,1731186107,767220398,RU_myo,0.8088238702924735,0.5819430065178811,0.0632971363288276,-0.0560335305206015,25.5625,48.6875,3.1875,-0.1884765625,0.6962890625,0.28125
1969/12/31/18:00:04.623000,76,1731186107,785253649,RU_myo,0.8062964884713564,0.5852821368623646,0.0696430199353382,-0.049806051066815,17.1875,49.0,15.8125,-0.26171875,0.78857421875,0.2177734375
1969/12/31/18:00:04.646000,77,1731186107,808095033,RU_myo,0.8045100334693969,0.5876506033110805,0.0745854837189593,-0.0432131935131122,9.625,45.5625,15.0625,-0.173828125,0.88330078125,0.23046875
1969/12/31/18:00:04.665000,78,1731186107,827332470,RU_myo,0.8029794707313315,0.5897061700292964,0.0783751912139133,-0.0364408015223568,11.875,42.5625,15.8125,-0.10546875,0.875,0.28759765625
1969/12/31/18:00:04.682000,79,1731186107,843706668,RU_myo,0.8017158053517727,0.5915667746836224,0.0802631354425261,-0.0292975703516445,4.0,33.9375,23.125,-0.10009765625,0.88916015625,0.1923828125
1969/12/31/18:00:04.703000,80,1731186107,864802922,RU_myo,0.802611923210567,0.5906208053072816,0.0806945746812966,-0.0216691180119972,-17.875,27.875,27.6875,-0.064453125,0.91162109375,0.17578125
1969/12/31/18:00:04.725000,81,1731186107,887278582,RU_myo,0.8032549070326814,0.5901115836772008,0.0797151146340943,-0.0139776119840793,-7.9375,22.875,32.1875,-0.03271484375,0.8330078125,0.25537109375
1969/12/31/18:00:04.740000,82,1731186107,902185582,RU_myo,0.8018635923003049,0.5923182080902915,0.0783124753689039,-0.0064090490364262,8.5,20.75,36.3125,-0.064453125,0.9091796875,0.2294921875
1969/12/31/18:00:04.763000,83,1731186107,924709933,RU_myo,0.8005546067103988,0.5943123060032901,0.0768449412815181,0.0002441459611803,2.3125,15.5,36.25,-0.12890625,1.005859375,0.17578125
1969/12/31/18:00:04.785000,84,1731186107,947405147,RU_myo,0.80007408833109,0.5951725995816645,0.0750145754164563,0.0048829666666529,-6.1875,6.75,27.0625,-0.1083984375,1.017578125,0.15673828125
1969/12/31/18:00:04.802000,85,1731186107,963651786,RU_myo,0.8000181419374945,0.5955426116490526,0.0722683665258254,0.0087893959288166,-2.8125,0.9375,24.6875,-0.06494140625,0.9501953125,0.234375
1969/12/31/18:00:04.823000,86,1731186107,984666056,RU_myo,0.7998874964471465,0.5959634883868705,0.0695819722205072,0.0128787685425675,1.375,3.4375,22.8125,-0.02392578125,0.99462890625,0.3037109375
1969/12/31/18:00:04.845000,87,1731186108,7131901,RU_myo,0.800145964273765,0.5957300031514186,0.0676300044561241,0.0172737285749847,-1.125,7.5,22.3125,-0.0224609375,0.97998046875,0.3271484375
1969/12/31/18:00:04.861000,88,1731186108,23619505,RU_myo,0.7998961310655762,0.5961530341180834,0.0657983997931088,0.0209358544796255,-0.8125,4.4375,21.25,-0.05615234375,0.96533203125,0.25537109375
1969/12/31/18:00:04.883000,89,1731186108,44827153,RU_myo,0.7993422731720069,0.5970041824904856,0.0637838023415353,0.0238655183880768,2.75,0.875,20.125,-0.0673828125,0.96826171875,0.25732421875
1969/12/31/18:00:04.905000,90,1731186108,67105284,RU_myo,0.7982429356837911,0.598529609062185,0.0623798960291202,0.0260628332724406,9.0625,1.4375,15.25,-0.06494140625,1.0009765625,0.27978515625
1969/12/31/18:00:04.931000,91,1731186108,92680764,RU_myo,0.7978576006511189,0.5990035566699878,0.0618290812010085,0.0281984555921677,4.9375,4.8125,11.75,-0.06787109375,0.9658203125,0.30859375
1969/12/31/18:00:04.943000,92,1731186108,104950268,RU_myo,0.7971071059578895,0.600012470446899,0.0608557917635359,0.0300311429765894,7.125,2.125,11.8125,-0.0537109375,0.943359375,0.27734375
1969/12/31/18:00:04.965000,93,1731186108,127288916,RU_myo,0.7959392013191343,0.6015933104448917,0.0598175166635545,0.031434715389521,7.625,0.125,9.875,-0.0458984375,0.99267578125,0.23876953125
1969/12/31/18:00:04.982000,94,1731186108,143691986,RU_myo,0.7955672095865903,0.6021382938907254,0.0587184023033834,0.0324721310035343,-1.9375,-1.375,7.0625,-0.03271484375,1.02294921875,0.2041015625
1969/12/31/18:00:05.003000,95,1731186108,164904439,RU_myo,0.7966030187484576,0.6008551158194635,0.0572533623159952,0.0334486594340782,-13.75,-2.9375,6.6875,-0.017578125,0.95361328125,0.21923828125
1969/12/31/18:00:05.020000,96,1731186108,182670054,RU_myo,0.7970774287143392,0.6003563510861658,0.0554212654317038,0.0341805161252798,-5.4375,-5.25,7.25,-0.01708984375,0.91015625,0.244140625
1969/12/31/18:00:05.042000,97,1731186108,203669391,RU_myo,0.7966662290712775,0.6010398680405201,0.0535912464851809,0.0346695079767457,-0.125,-7.0625,9.1875,-0.04638671875,0.95458984375,0.2060546875
1969/12/31/18:00:05.070000,98,1731186108,232126850,RU_myo,0.7958852795664674,0.6022090780123297,0.0518830038830813,0.0349142096719088,5.9375,-6.875,6.6875,-0.02978515625,0.94775390625,0.24462890625
1969/12/31/18:00:05.085000,99,1731186108,247138194,RU_myo,0.7942247543712656,0.6045800946854738,0.0493185983347665,0.03546300202042,18.6875,-9.0,9.1875,0.015625,0.82177734375,0.267578125
1969/12/31/18:00:05.103000,100,1731186108,265120544,RU_myo,0.7903407800083293,0.6098466738541256,0.0461459398892722,0.036318563801742,40.0625,-8.3125,6.3125,0.12353515625,1.1884765625,0.35791015625
1969/12/31/18:00:05.123000,101,1731186108,284669854,RU_myo,0.7877245641050163,0.6132239807502788,0.0466921812754019,0.0355837146190318,31.0625,0.25,-4.625,-0.0244140625,1.1611328125,0.38525390625
1969/12/31/18:00:05.145000,102,1731186108,307278001,RU_myo,0.7900237124326076,0.6101427048965731,0.0479153684817737,0.0359517860328212,-26.3125,5.9375,-1.875,-0.06640625,1.021484375,0.19970703125
1969/12/31/18:00:05.163000,103,1731186108,325249186,RU_myo,0.793364141241527,0.6057962072489733,0.0482805843762154,0.035401692715809,-36.8125,-0.5,-5.0625,-0.04443359375,0.9619140625,0.1748046875
1969/12/31/18:00:05.183000,104,1731186108,344722418,RU_myo,0.795502859774109,0.602990313182569,0.0485248809576012,0.0349745368411389,-15.5,-0.625,-2.5625,-0.0478515625,0.79248046875,0.28955078125
1969/12/31/18:00:05.205000,105,1731186108,367369790,RU_myo,0.7957109072497456,0.6027040118275535,0.0484043226027192,0.0353418698448605,-0.8125,0.375,2.8125,-0.04345703125,0.82177734375,0.24853515625
1969/12/31/18:00:05.223000,106,1731186108,385290792,RU_myo,0.7940413848708824,0.604885089097582,0.0485250903968292,0.0354629905918965,14.875,0.5625,3.0,-0.06103515625,0.91552734375,0.24072265625
1969/12/31/18:00:05.243000,107,1731186108,404813736,RU_myo,0.7913600549864527,0.6083065413031228,0.0495019671881228,0.0355242230622534,24.5625,4.6875,-1.6875,-0.03759765625,1.02001953125,0.26171875
1969/12/31/18:00:05.265000,108,1731186108,427283639,RU_myo,0.7891703483915778,0.610998158202467,0.0511504951622045,0.035707684570274,21.5,8.5625,-5.0,-0.02099609375,1.0341796875,0.28466796875
1969/12/31/18:00:05.283000,109,1731186108,445114483,RU_myo,0.7882428288084352,0.6120875861306325,0.0523704775528602,0.0357681816386667,7.375,6.25,-5.875,-0.00537109375,1.00927734375,0.2421875
1969/12/31/18:00:05.303000,110,1731186108,464804471,RU_myo,0.7885556815124041,0.6116052270883419,0.053164486306781,0.0359516445863306,-4.0625,5.0625,-5.75,0.009765625,0.96875,0.2353515625
1969/12/31/18:00:05.321000,111,1731186108,482803324,RU_myo,0.7887883050680872,0.6112300616692583,0.0536520096072776,0.0365004570479545,-0.4375,5.375,-4.4375,0.03515625,0.88916015625,0.25634765625
1969/12/31/18:00:05.343000,112,1731186108,505146585,RU_myo,0.7873884015445161,0.6129421959930256,0.0543847337810979,0.0369279056538319,9.0,5.25,-2.375,0.00244140625,0.90185546875,0.17333984375
1969/12/31/18:00:05.363000,113,1731186108,524808831,RU_myo,0.7870964155845592,0.6133187114225398,0.0543246072020362,0.036989564004982,-0.5,-0.3125,0.375,-0.0107421875,0.9404296875,0.06689453125
1969/12/31/18:00:05.381000,114,1731186108,542772908,RU_myo,0.7870261357400093,0.613555662824459,0.0529811296589365,0.0365008243502811,-12.0625,-7.9375,0.5625,-0.0087890625,0.97509765625,0.05126953125
1969/12/31/18:00:05.403000,115,1731186108,565073382,RU_myo,0.788557827668431,0.6119120847105829,0.0502958162395531,0.034792008806487,-24.4375,-17.5,-3.0,0.017578125,1.01708984375,0.08642578125
1969/12/31/18:00:05.430000,116,1731186108,592331876,RU_myo,0.7930561680696254,0.606526525214182,0.0468155222742555,0.0315562255746937,-49.8125,-26.5,-9.5625,0.03125,0.96875,0.1162109375
1969/12/31/18:00:05.442000,117,1731186108,604231849,RU_myo,0.7999804486759873,0.5980626000402353,0.0413235742220085,0.0253923292117511,-89.1875,-47.3125,-15.3125,-0.00244140625,1.0283203125,-0.10546875
1969/12/31/18:00:05.463000,118,1731186108,625150663,RU_myo,0.8146047517169798,0.5790615375047945,0.0302745359547146,0.0137944458180756,-149.1875,-91.6875,-22.0,-0.048828125,1.1669921875,-0.39208984375
1969/12/31/18:00:05.483000,119,1731186108,644885563,RU_myo,0.8347466114016725,0.5504346988607987,0.0147099980511701,-0.0018311200893572,-212.875,-125.9375,-28.4375,-0.0166015625,1.10498046875,-0.39990234375
1969/12/31/18:00:05.500000,120,1731186108,662593580,RU_myo,0.8571628131760651,0.5146150877937339,-0.0035402295210575,-0.0207530696061996,-248.375,-148.5,-37.9375,0.1123046875,0.69189453125,-0.138671875
1969/12/31/18:00:05.523000,121,1731186108,685216592,RU_myo,0.8761815405107581,0.4796262309532245,-0.0229497916567081,-0.0416880523976905,-228.25,-158.8125,-46.4375,0.2490234375,0.3798828125,0.09375
1969/12/31/18:00:05.550000,122,1731186108,712164475,RU_myo,0.888111916245422,0.4532727896933679,-0.0441309220237415,-0.0620762762076697,-161.4375,-164.1875,-42.625,0.34130859375,0.23974609375,0.2783203125
1969/12/31/18:00:05.561000,123,1731186108,722834436,RU_myo,0.8923769411675075,0.4389859754361638,-0.0677522848629229,-0.0797767894737299,-75.5625,-166.8125,-28.6875,0.39013671875,0.17626953125,0.43212890625
1969/12/31/18:00:05.582000,124,1731186108,744406423,RU_myo,0.8897168075718406,0.4361608223165516,-0.0959480566305092,-0.0946663077823917,3.3125,-180.25,-10.4375,0.408203125,0.23291015625,0.45703125
1969/12/31/18:00:05.603000,125,1731186108,764691156,RU_myo,0.8822317165532894,0.4406275606612838,-0.1278729380226332,-0.1056553965237127,55.375,-190.125,14.0625,0.298828125,0.369140625,0.4599609375
1969/12/31/18:00:05.620000,126,1731186108,782607517,RU_myo,0.8719766382422196,0.4466698193095732,-0.1658379200688863,-0.1124304191265692,76.5,-210.25,46.25,0.44677734375,0.48095703125,0.4443359375
1969/12/31/18:00:05.642000,127,1731186108,804491821,RU_myo,0.8606244749320273,0.449722066049587,-0.2088692874622267,-0.1159706739270107,69.6875,-230.625,78.0,0.49658203125,0.6240234375,0.4521484375
1969/12/31/18:00:05.663000,128,1731186108,825385824,RU_myo,0.8512911976210262,0.4436211675851164,-0.2545267293381859,-0.117131125563544,21.375,-241.3125,109.75,0.54248046875,0.7421875,0.33056640625
1969/12/31/18:00:05.679000,129,1731186108,841658722,RU_myo,0.845285435973857,0.4253588131490944,-0.3001742923040962,-0.1202406172913927,-49.25,-249.5,120.5,0.60107421875,0.78564453125,0.33251953125
1969/12/31/18:00:05.710000,130,1731186108,871829235,RU_myo,0.8400043783765294,0.3991272075428081,-0.3447423869401713,-0.1274472563617347,-96.0,-259.5625,113.1875,0.6318359375,0.7529296875,0.43310546875
1969/12/31/18:00:05.723000,131,1731186108,885397122,RU_myo,0.832657525272215,0.3675607401546165,-0.3912428336750402,-0.1360499650954235,-116.9375,-280.3125,118.5,0.7216796875,0.54443359375,0.4189453125
1969/12/31/18:00:05.740000,132,1731186108,901835363,RU_myo,0.8208322974685129,0.3350348364667361,-0.4390427361459706,-0.1456965120506648,-113.9375,-299.3125,114.375,0.8291015625,0.51416015625,0.3623046875
1969/12/31/18:00:05.762000,133,1731186108,924411721,RU_myo,0.7963365829014322,0.3065837859978457,-0.4972602238750646,-0.1568014625181098,-64.9375,-380.125,106.125,0.99267578125,0.50048828125,0.3427734375
1969/12/31/18:00:05.783000,134,1731186108,945253357,RU_myo,0.7727467081689996,0.282219475442181,-0.5444809559731179,-0.163570111199188,-42.75,-319.1875,94.5625,1.13623046875,0.4921875,0.5517578125
1969/12/31/18:00:05.799000,135,1731186108,961155580,RU_myo,0.7461034989920263,0.2638584281857436,-0.5893631696880731,-0.1623556370516025,12.8125,-301.5,103.6875,1.31005859375,0.451171875,0.5751953125
1969/12/31/18:00:05.828000,136,1731186108,990342251,RU_myo,0.71910505752754,0.249568883061459,-0.6284692562689763,-0.1600927317853282,29.5625,-276.125,88.4375,1.29150390625,0.619140625,0.65673828125
1969/12/31/18:00:05.843000,137,1731186109,5354797,RU_myo,0.695634123839373,0.2332208464675128,-0.6607822255580461,-0.1583289389522973,6.5,-237.25,92.0,1.30712890625,0.87109375,0.50341796875
1969/12/31/18:00:05.859000,138,1731186109,21156992,RU_myo,0.6724217989197265,0.2128898279596992,-0.6907322772419484,-0.1594232312588114,-23.125,-234.0625,93.0,1.162109375,0.7783203125,0.37890625
1969/12/31/18:00:05.882000,139,1731186109,44352347,RU_myo,0.6536942954277474,0.1903098798453516,-0.7132042803056236,-0.1667500294219053,-66.8125,-200.125,72.25,1.16943359375,0.6845703125,0.52880859375
1969/12/31/18:00:05.882000,1,1731186115,261824305,RU_myo,0.8569067735603477,0.4994706266859695,-0.0598778791126648,-0.1124922846122744,8.5,91.4375,48.3125,-0.009765625,0.833984375,0.12841796875
1969/12/31/18:00:05.903000,2,1731186115,283013724,RU_myo,0.8535313548837633,0.5085542941140958,-0.0556040520808858,-0.0988177390987423,45.6875,66.0625,46.875,0.0419921875,0.78076171875,0.2568359375
1969/12/31/18:00:05.919000,3,1731186115,299200383,RU_myo,0.8455486858124144,0.5236383581595829,-0.0560932102982465,-0.0877715303687469,82.75,38.6875,40.3125,0.0947265625,0.87744140625,0.1455078125
1969/12/31/18:00:05.942000,4,1731186115,321847939,RU_myo,0.8399496398106403,0.5339030229942352,-0.055911188871924,-0.0794109789545558,51.75,32.0,28.625,0.09228515625,0.9228515625,0.16259765625
1969/12/31/18:00:05.963000,5,1731186115,342985345,RU_myo,0.8350425133613188,0.5424938132267672,-0.0566420183027047,-0.0720842926891102,47.125,23.25,28.25,0.08740234375,0.9814453125,0.248046875
1969/12/31/18:00:05.979000,6,1731186115,359392645,RU_myo,0.8303781080039327,0.5498416639884905,-0.0608561433166657,-0.0666548731211624,45.625,0.0625,30.8125,0.09033203125,1.04638671875,0.32861328125
1969/12/31/18:00:06.002000,7,1731186115,381993581,RU_myo,0.8297161017088146,0.5506414296708023,-0.0650685915119249,-0.0642750721032429,-1.1875,-10.6875,20.4375,0.09912109375,1.09375,0.3095703125
1969/12/31/18:00:06.023000,8,1731186115,402967163,RU_myo,0.8328363944467578,0.5457229903076923,-0.0673837581142704,-0.0634774532960519,-37.5,-9.25,14.8125,0.03369140625,0.94775390625,0.32470703125
1969/12/31/18:00:06.041000,9,1731186115,421027456,RU_myo,0.8355105558206832,0.5408327149628953,-0.0721435807568155,-0.064941429716795,-33.5,-28.125,11.5,0.03466796875,0.89501953125,0.3515625
1969/12/31/18:00:06.062000,10,1731186115,442018292,RU_myo,0.8375123171676111,0.5365914131783739,-0.078739952565135,-0.0666542854272306,-34.1875,-35.75,11.5625,0.107421875,0.92626953125,0.27099609375
1969/12/31/18:00:06.091000,11,1731186115,470599427,RU_myo,0.8401659085836066,0.531443847877767,-0.0852678368537085,-0.0664686287284814,-24.75,-28.375,16.4375,0.1806640625,0.6904296875,0.41015625
1969/12/31/18:00:06.099000,12,1731186115,479404221,RU_myo,0.838397146361308,0.533214725583313,-0.0939961855996224,-0.0627455057119557,31.4375,-22.25,22.125,0.41455078125,0.890625,0.59521484375
1969/12/31/18:00:06.122000,13,1731186115,501847668,RU_myo,0.8357781759073211,0.5371856953304851,-0.0966214016257423,-0.0597551182511697,26.5,6.0625,-1.0625,0.45947265625,1.3447265625,0.55419921875
1969/12/31/18:00:06.143000,14,1731186115,522889245,RU_myo,0.8364044523050258,0.5367686458126247,-0.0944258693509359,-0.0582303034006418,-1.6875,17.25,-4.0625,0.181640625,0.9921875,0.47900390625
1969/12/31/18:00:06.159000,15,1731186115,539273414,RU_myo,0.835597135388545,0.5384688041196306,-0.0933256406142502,-0.0558488954624191,22.375,11.1875,7.625,0.06689453125,0.74658203125,0.4970703125
1969/12/31/18:00:06.182000,16,1731186115,561796625,RU_myo,0.8323652094738616,0.5436589367737542,-0.0932649439081954,-0.0538959067218171,45.8125,3.9375,8.1875,0.0302734375,0.74169921875,0.47607421875
1969/12/31/18:00:06.203000,17,1731186115,582931795,RU_myo,0.8266686728745373,0.552617997947878,-0.0923471427982261,-0.0520024888724974,60.75,8.875,2.0625,0.04443359375,0.7890625,0.3095703125
1969/12/31/18:00:06.219000,18,1731186115,599334395,RU_myo,0.8207660922577292,0.5616635369194336,-0.0911284134558481,-0.0507218429884861,57.0625,8.0625,0.375,0.0126953125,0.87841796875,0.26025390625
1969/12/31/18:00:06.242000,19,1731186115,621906121,RU_myo,0.8173728260198904,0.566807860684094,-0.090642868093461,-0.0491363695725496,35.5,5.9375,5.625,0.03857421875,0.90625,0.3232421875
1969/12/31/18:00:06.263000,20,1731186115,642975461,RU_myo,0.8157683853732846,0.5693593339889261,-0.090396781050343,-0.0466938133041947,18.5625,7.5625,12.0625,0.03857421875,0.8798828125,0.322265625
1969/12/31/18:00:06.287000,21,1731186115,666950779,RU_myo,0.8152034327137726,0.5703250131235019,-0.0902119402179511,-0.0451059701089755,3.9375,5.375,8.5625,0.06005859375,0.97900390625,0.296875
1969/12/31/18:00:06.302000,22,1731186115,681915045,RU_myo,0.816552312086144,0.5684981488092649,-0.0897853528986932,-0.0446180101760331,-13.5,4.1875,1.4375,0.1103515625,0.96533203125,0.3349609375
1969/12/31/18:00:06.323000,23,1731186115,703011909,RU_myo,0.8184529830038874,0.5659404920883021,-0.089114874724862,-0.0436418735810112,-14.8125,7.3125,1.125,0.142578125,0.947265625,0.400390625
1969/12/31/18:00:06.339000,24,1731186115,718663056,RU_myo,0.8191182579796935,0.5653258796876245,-0.0877713900875409,-0.0418104326912138,-1.125,12.0,5.25,0.08447265625,0.904296875,0.37890625
1969/12/31/18:00:06.362000,25,1731186115,741914286,RU_myo,0.8187771036139095,0.5661366956924863,-0.0864312195256669,-0.0402857379145057,5.3125,10.3125,4.8125,0.05712890625,0.92529296875,0.34326171875
1969/12/31/18:00:06.383000,26,1731186115,762974768,RU_myo,0.8178022529821027,0.5677249406617807,-0.0855768591342669,-0.0395533557196896,12.5,6.4375,-1.0625,0.1044921875,0.92626953125,0.3623046875
1969/12/31/18:00:06.399000,27,1731186115,778895697,RU_myo,0.815088717378199,0.5718560875480265,-0.0845363092383409,-0.0382702280811839,31.3125,9.0,-2.5,0.12158203125,0.859375,0.34423828125
1969/12/31/18:00:06.422000,28,1731186115,802137098,RU_myo,0.8106495240026428,0.578398832124768,-0.083378303575605,-0.0367450503312695,44.0625,10.6875,-2.875,0.12646484375,0.93798828125,0.2958984375
1969/12/31/18:00:06.443000,29,1731186115,822884381,RU_myo,0.8065522734776626,0.5844970917831162,-0.0808139253885595,-0.0361343231344616,43.75,12.75,-8.5625,0.08447265625,1.0703125,0.3740234375
1969/12/31/18:00:06.459000,30,1731186115,838728677,RU_myo,0.8047580642202916,0.5876534427237746,-0.0763558845915498,-0.0346073433760261,37.0,22.5625,-5.25,0.00537109375,0.853515625,0.51318359375
1969/12/31/18:00:06.482000,31,1731186115,861936076,RU_myo,0.8007368630129459,0.5936402720987813,-0.0734878560155184,-0.0317999775615324,56.5,18.625,6.4375,-0.04150390625,0.70556640625,0.431640625
1969/12/31/18:00:06.505000,32,1731186115,884463775,RU_myo,0.7948736587010888,0.6016942737829482,-0.0719616097372789,-0.0310063594118216,53.375,6.3125,2.8125,-0.04638671875,1.07177734375,0.24365234375
1969/12/31/18:00:06.519000,33,1731186115,898801748,RU_myo,0.7924153544571305,0.6052070743677745,-0.0687305260451955,-0.0328392744336724,18.3125,5.9375,-11.875,-0.0556640625,1.16015625,0.2392578125
1969/12/31/18:00:06.542000,34,1731186115,921866407,RU_myo,0.7935362188700036,0.6038346137436309,-0.0661025863422978,-0.0362557121766619,-17.8125,-1.125,-17.3125,-0.0234375,1.12109375,0.216796875
1969/12/31/18:00:06.564000,35,1731186115,944470311,RU_myo,0.7973275636486246,0.5987738956895817,-0.0638448007024773,-0.0407727790337044,-48.1875,-4.125,-26.625,0.0810546875,1.25,0.21240234375
1969/12/31/18:00:06.579000,36,1731186115,958918266,RU_myo,0.8035120002032533,0.5904262821305127,-0.0596347025371147,-0.04699971438442,-64.9375,-0.625,-42.3125,0.10546875,1.1494140625,0.32568359375
1969/12/31/18:00:06.602000,37,1731186115,981861906,RU_myo,0.8098481105762226,0.581689214183856,-0.0542014713741095,-0.0533469436722654,-60.8125,4.8125,-48.125,0.103515625,0.9501953125,0.38525390625
1969/12/31/18:00:06.624000,38,1731186116,4386849,RU_myo,0.8137067362290563,0.5763272825350498,-0.0479764079720979,-0.0585361008209185,-31.1875,12.9375,-48.0,0.09716796875,0.93017578125,0.47509765625
1969/12/31/18:00:06.645000,39,1731186116,25526436,RU_myo,0.8151922719580406,0.5742845228251875,-0.0394900718745771,-0.0640264071042216,-10.125,22.3125,-55.5625,0.037109375,1.021484375,0.49755859375
1969/12/31/18:00:06.662000,40,1731186116,41987767,RU_myo,0.8168564180184141,0.5719764995330314,-0.0286873284367223,-0.0690326988551764,-13.625,33.5625,-58.25,-0.0302734375,0.953125,0.462890625
1969/12/31/18:00:06.684000,41,1731186116,64395495,RU_myo,0.8186278718291231,0.5692918401841807,-0.0165410194799949,-0.0740378473403464,-15.5,40.4375,-62.625,-0.04150390625,0.81982421875,0.4423828125
1969/12/31/18:00:06.707000,42,1731186116,86880059,RU_myo,0.8200541791702188,0.5669269234189053,-0.0044558209958634,-0.0780073867495005,-12.3125,44.0625,-58.5,-0.05126953125,0.779296875,0.4326171875
1969/12/31/18:00:06.722000,43,1731186116,101909422,RU_myo,0.8215586779627113,0.5644706280682878,0.0070802976704067,-0.0797754228898412,-15.0,48.9375,-48.125,-0.04833984375,0.84912109375,0.435546875
1969/12/31/18:00:06.760000,44,1731186116,140140671,RU_myo,0.8248647828571025,0.5595334811640564,0.0184334145643662,-0.0786166819831247,-31.6875,56.1875,-31.4375,-0.07373046875,0.7294921875,0.4091796875
1969/12/31/18:00:06.766000,45,1731186116,145565747,RU_myo,0.8282838128814951,0.5544679555059323,0.0294202503912218,-0.0751376104389919,-29.1875,61.75,-16.3125,-0.1142578125,0.63427734375,0.43994140625
1969/12/31/18:00:06.782000,46,1731186116,161818689,RU_myo,0.8293028662433202,0.5531737599737404,0.0388192112262274,-0.0689102035761175,-4.1875,62.5,5.5625,-0.1845703125,0.60107421875,0.416015625
1969/12/31/18:00:06.804000,47,1731186116,184405735,RU_myo,0.8266895936920222,0.5573318576492805,0.0464494079149164,-0.0617087403442583,29.625,59.6875,16.0625,-0.1962890625,0.6279296875,0.3505859375
1969/12/31/18:00:06.826000,48,1731186116,205456451,RU_myo,0.8213884223971554,0.5653339948162631,0.052919949633524,-0.0540186337089605,53.5625,59.4375,17.25,-0.138671875,0.74169921875,0.3349609375
1969/12/31/18:00:06.842000,49,1731186116,221963972,RU_myo,0.8155647584401683,0.5738616867874916,0.0588998646830386,-0.0454719162578899,60.625,61.25,21.0625,-0.1083984375,0.7119140625,0.349609375
1969/12/31/18:00:06.847000,50,1731186116,227306716,RU_myo,0.8096168923309627,0.582430970040866,0.0639074853943394,-0.0347920407590959,56.8125,63.8125,33.25,-0.0908203125,0.73779296875,0.28125
1969/12/31/18:00:06.870000,51,1731186116,249864640,RU_myo,0.8052645204431261,0.5885212238393559,0.0684838014050775,-0.0224006730086126,35.875,66.4375,39.3125,-0.06640625,0.87255859375,0.251953125
1969/12/31/18:00:06.892000,52,1731186116,272402859,RU_myo,0.8033921484745883,0.5909162277300175,0.0726971621967204,-0.0097051627114009,5.625,64.5625,38.125,-0.02099609375,0.94287109375,0.197265625
1969/12/31/18:00:06.907000,53,1731186116,287324623,RU_myo,0.8045454297676415,0.5890193003002611,0.0758705689402305,0.002563607317369,-26.9375,56.0625,39.0625,-0.03564453125,0.9853515625,0.17578125
1969/12/31/18:00:06.930000,54,1731186116,309849178,RU_myo,0.805986193760896,0.5868043367525372,0.076539696098157,0.0137331990606741,-28.1875,40.1875,45.5625,-0.0712890625,0.99609375,0.189453125
1969/12/31/18:00:06.952000,55,1731186116,332281109,RU_myo,0.8067261791808665,0.5855280500024251,0.076235227192018,0.0231940643178277,-27.25,29.3125,41.5625,-0.0703125,1.10888671875,0.13623046875
1969/12/31/18:00:06.967000,56,1731186116,347298667,RU_myo,0.8080975086500849,0.5832292238954272,0.0767262307102618,0.0305806217866676,-27.1875,27.0,27.5625,-0.04833984375,1.08642578125,0.21923828125
1969/12/31/18:00:06.990000,57,1731186116,369709863,RU_myo,0.8072992561850232,0.5840193016163845,0.076847857518293,0.0358297794783463,3.8125,19.125,21.875,-0.03466796875,0.84912109375,0.2724609375
1969/12/31/18:00:07.012000,58,1731186116,392286760,RU_myo,0.8044874681864219,0.5878007829010048,0.0754435895810635,0.0399802193977318,19.625,8.6875,21.5,-0.00341796875,0.88134765625,0.20263671875
1969/12/31/18:00:07.038000,59,1731186116,417882710,RU_myo,0.8012318347504724,0.5923024091124084,0.0730612101924518,0.0432141493870141,19.0,1.3125,19.4375,0.01708984375,1.0849609375,0.1630859375
1969/12/31/18:00:07.050000,60,1731186116,429739246,RU_myo,0.8001432634606789,0.5938968612001225,0.0709868499050095,0.0449237502408314,1.875,-3.25,13.5,-0.03662109375,1.09814453125,0.2099609375
1969/12/31/18:00:07.068000,61,1731186116,447621919,RU_myo,0.8016507802544773,0.5921741944593375,0.0683606573690432,0.0448616813984346,-17.875,-13.5,9.375,-0.0869140625,1.00927734375,0.2451171875
1969/12/31/18:00:07.087000,62,1731186116,467141766,RU_myo,0.8044272478795902,0.5888390363680406,0.0649450331393796,0.0441308824809882,-29.4375,-17.9375,4.625,-0.033203125,0.998046875,0.24853515625
1969/12/31/18:00:07.110000,63,1731186116,489844456,RU_myo,0.8079062248469425,0.5843830610973577,0.0621982806829128,0.0437646391066226,-34.5,-12.75,0.0625,0.02490234375,0.9931640625,0.30078125
1969/12/31/18:00:07.128000,64,1731186116,507657880,RU_myo,0.8105808195836189,0.5808959081308208,0.0599390334963188,0.0438861151566733,-23.25,-9.0625,3.6875,-0.00341796875,0.8623046875,0.3271484375
1969/12/31/18:00:07.147000,65,1731186116,527206131,RU_myo,0.8111297162794022,0.5804072896456345,0.0569481545103982,0.044191279598637,-1.0625,-12.625,10.8125,-0.03369140625,0.783203125,0.32275390625
1969/12/31/18:00:07.170000,66,1731186116,549853261,RU_myo,0.8092987487258978,0.5832151402123805,0.0535910929467786,0.0449847784758267,17.8125,-13.25,15.6875,-0.0234375,0.84326171875,0.27783203125
1969/12/31/18:00:07.188000,67,1731186116,567649868,RU_myo,0.806850641422948,0.5866894897766379,0.0513933156878827,0.0463272287495285,24.1875,-5.625,15.5625,-0.0322265625,0.93505859375,0.3115234375
1969/12/31/18:00:07.207000,68,1731186116,587292128,RU_myo,0.8044932754754732,0.5898803500906656,0.0503571283966058,0.0479155706561643,23.875,-0.25,14.125,-0.05029296875,0.95166015625,0.326171875
1969/12/31/18:00:07.230000,69,1731186116,609774560,RU_myo,0.8031906391811745,0.5916351444321851,0.0495013001273601,0.0490130012358449,10.5,-0.75,9.875,-0.0390625,0.94482421875,0.27197265625
1969/12/31/18:00:07.248000,70,1731186116,627648638,RU_myo,0.8022237249489579,0.5929851242394526,0.0482811356946378,0.0497460500519973,8.9375,-2.9375,6.0,0.01220703125,0.93896484375,0.28564453125
1969/12/31/18:00:07.267000,71,1731186116,647186078,RU_myo,0.8015444385693526,0.5938948665305971,0.0474871743227959,0.0506000867784033,7.125,2.0,-1.375,0.10888671875,1.140625,0.36328125
1969/12/31/18:00:07.290000,72,1731186116,669773209,RU_myo,0.8026375680846708,0.5921206880600297,0.0498062551754442,0.0518204787303335,-0.1875,15.25,-3.3125,-0.02197265625,1.03369140625,0.4873046875
1969/12/31/18:00:07.315000,73,1731186116,695085901,RU_myo,0.8046064995129383,0.5890193233424256,0.0515773397123678,0.0548123681203625,-17.375,17.1875,10.8125,-0.0849609375,0.84375,0.322265625
1969/12/31/18:00:07.327000,74,1731186116,707292713,RU_myo,0.8046709329577111,0.5887166159733842,0.05340871321687,0.0553619461573726,-6.1875,9.875,-2.4375,-0.0390625,0.99951171875,0.24462890625
1969/12/31/18:00:07.350000,75,1731186116,729911542,RU_myo,0.8045902449837429,0.5885191277600704,0.055482668236248,0.0565813349339955,1.5,14.3125,-3.0625,0.00341796875,0.92578125,0.31787109375
1969/12/31/18:00:07.366000,76,1731186116,746392253,RU_myo,0.8041895264311403,0.5887827075487498,0.0565221632998281,0.0584754130034939,3.375,13.5625,-1.9375,0.0849609375,0.9482421875,0.3154296875
1969/12/31/18:00:07.387000,77,1731186116,767285713,RU_myo,0.8038003674582155,0.5888879903741259,0.0582906333755483,0.060976275122694,9.75,16.8125,5.6875,-0.021484375,0.828125,0.3857421875
1969/12/31/18:00:07.410000,78,1731186116,789757768,RU_myo,0.8025169888297015,0.5902296381185894,0.0593891869585716,0.0637838647191236,10.9375,13.1875,14.0,-0.07373046875,0.822265625,0.26611328125
1969/12/31/18:00:07.428000,79,1731186116,807880783,RU_myo,0.7996162256123002,0.5938523861818373,0.0608562883156842,0.0651900861796898,19.75,9.8125,7.375,-0.07568359375,0.9716796875,0.1923828125
1969/12/31/18:00:07.447000,80,1731186116,827305378,RU_myo,0.7964763424817016,0.5978608149749611,0.0625022434440388,0.0654320361054781,23.6875,7.375,-0.25,-0.05029296875,1.10595703125,0.234375
1969/12/31/18:00:07.470000,81,1731186116,849802099,RU_myo,0.794745961005514,0.6001030864454507,0.0633550654729839,0.0651251010208803,11.0625,3.0,-4.4375,0.00048828125,1.0283203125,0.20947265625
1969/12/31/18:00:07.488000,82,1731186116,867830155,RU_myo,0.7951969104620944,0.5995105967576521,0.0630517660813128,0.0653711921327067,-6.8125,0.3125,-1.75,0.02734375,0.9384765625,0.2333984375
1969/12/31/18:00:07.507000,83,1731186116,887279641,RU_myo,0.795560651863098,0.5990814637130817,0.0618308224902039,0.0660423987506423,-1.625,-2.0,3.1875,0.037109375,0.9228515625,0.29541015625
1969/12/31/18:00:07.530000,84,1731186116,909777613,RU_myo,0.7951842546671835,0.5995620919247577,0.0611586293503621,0.0668350290804855,5.125,0.1875,4.1875,0.01220703125,0.9267578125,0.29541015625
1969/12/31/18:00:07.547000,85,1731186116,927570808,RU_myo,0.7946161753226767,0.6003264775156342,0.0610398045262464,0.0668385859562399,3.5625,-0.625,0.3125,-0.00537109375,0.91796875,0.23486328125
1969/12/31/18:00:07.567000,86,1731186116,947331732,RU_myo,0.7941055854005649,0.601103136435416,0.0603056355400275,0.066592559083168,-0.125,-4.5625,2.1875,-0.02197265625,0.8798828125,0.17138671875
1969/12/31/18:00:07.590000,87,1731186116,969843906,RU_myo,0.7939848640302107,0.6014703913094785,0.0584745925385102,0.0663485199262637,-7.0625,-8.4375,1.3125,0.04345703125,0.98779296875,0.1484375
1969/12/31/18:00:07.608000,88,1731186116,987613991,RU_myo,0.7959999178301623,0.5991515369542882,0.0567045413437789,0.0647005530940857,-25.25,-12.4375,-6.625,0.0390625,1.0390625,0.18310546875
1969/12/31/18:00:07.627000,89,1731186117,7354736,RU_myo,0.8001610666752483,0.5942152707364058,0.0540806091291685,0.0610390622225378,-51.6875,-23.8125,-12.5625,0.01123046875,0.98779296875,0.0751953125
1969/12/31/18:00:07.650000,90,1731186117,29817661,RU_myo,0.8072525502702385,0.5855556684115234,0.0495643909882369,0.0548748614512623,-89.875,-40.375,-21.5,0.02783203125,1.03466796875,-0.0576171875
1969/12/31/18:00:07.668000,91,1731186117,47831953,RU_myo,0.8203991436649609,0.5684991908411164,0.0420545353757278,0.0445570548973604,-131.0625,-67.5,-32.375,0.0263671875,1.05419921875,-0.13916015625
1969/12/31/18:00:07.687000,92,1731186117,67299445,RU_myo,0.8371693042065784,0.5452953166944862,0.0294193354204994,0.0305790187669507,-172.875,-102.9375,-35.4375,0.044921875,0.9765625,-0.14306640625
1969/12/31/18:00:07.710000,93,1731186117,89831785,RU_myo,0.8567061335526316,0.5154519305964643,0.0121462325859912,0.0147097590614266,-211.5625,-129.9375,-32.5,0.08642578125,0.81201171875,-0.02001953125
1969/12/31/18:00:07.728000,94,1731186117,107821629,RU_myo,0.8765615823911393,0.4812207726183234,-0.0076907429413887,-0.0026856562652468,-231.4375,-146.125,-33.0,0.146484375,0.62353515625,0.10546875
1969/12/31/18:00:07.747000,95,1731186117,127287563,RU_myo,0.8933053992446902,0.4480260765600291,-0.0282000064537784,-0.0219740310029442,-216.25,-154.5,-40.875,0.16845703125,0.50830078125,0.19580078125
1969/12/31/18:00:07.770000,96,1731186117,149874115,RU_myo,0.9043319610801124,0.4217082558789481,-0.0496235073135887,-0.043397679827751,-164.5,-164.9375,-50.9375,0.1748046875,0.4326171875,0.31103515625
1969/12/31/18:00:07.788000,97,1731186117,167826396,RU_myo,0.9088799392390728,0.4051537866274236,-0.0736088380043195,-0.0661014689541277,-96.25,-179.8125,-56.8125,0.2490234375,0.37060546875,0.4033203125
1969/12/31/18:00:07.807000,98,1731186117,187321284,RU_myo,0.9078851192302744,0.397298927058616,-0.101018547285606,-0.0877121767065956,-34.875,-192.5625,-50.625,0.42626953125,0.34130859375,0.494140625
1969/12/31/18:00:07.830000,99,1731186117,209861421,RU_myo,0.90230191668326,0.3966759221081313,-0.1314725244223596,-0.1058982497088179,16.5625,-198.6875,-33.6875,0.5380859375,0.3720703125,0.4853515625
1969/12/31/18:00:07.848000,100,1731186117,227726779,RU_myo,0.8933392176064135,0.4001593270447968,-0.1657157676825234,-0.1198158570757987,51.25,-210.0,-7.375,0.50732421875,0.4189453125,0.53564453125
1969/12/31/18:00:07.867000,101,1731186117,247267367,RU_myo,0.8822602601006584,0.4040513954940407,-0.2040398512290903,-0.1293330675304943,64.1875,-222.875,23.375,0.5234375,0.55322265625,0.52978515625
1969/12/31/18:00:07.890000,102,1731186117,269939450,RU_myo,0.8711769254673537,0.4029033058929448,-0.2446961601764605,-0.1372715550603291,40.3125,-234.5,42.875,0.58740234375,0.63525390625,0.41259765625
1969/12/31/18:00:07.908000,103,1731186117,287879778,RU_myo,0.8615944625186095,0.3929544594569855,-0.2865064045807844,-0.1454505245240752,-5.75,-246.875,58.5,0.59326171875,0.634765625,0.45556640625
1969/12/31/18:00:07.935000,104,1731186117,314735681,RU_myo,0.8525802719223512,0.3749570883747855,-0.3297888895472841,-0.1541212189722177,-45.625,-261.25,73.0,0.619140625,0.552734375,0.45654296875
1969/12/31/18:00:07.950000,105,1731186117,329694713,RU_myo,0.8439147504210606,0.34889459810551,-0.3737371630860808,-0.1624838033864359,-85.1875,-269.875,91.3125,0.75732421875,0.556640625,0.4140625
1969/12/31/18:00:07.968000,106,1731186117,347679933,RU_myo,0.8338147831730917,0.3164113780813489,-0.417914487986689,-0.1731595446791641,-118.5625,-284.375,91.6875,0.88330078125,0.533203125,0.36962890625
1969/12/31/18:00:07.987000,107,1731186117,367289273,RU_myo,0.8212705703939108,0.2797996502925074,-0.460656186901735,-0.1871434833762713,-141.4375,-296.125,82.9375,0.83203125,0.51318359375,0.50634765625
1969/12/31/18:00:08.010000,108,1731186117,389804609,RU_myo,0.8049751092019016,0.2441963311787708,-0.5011487316443107,-0.203059533574549,-136.75,-299.625,63.3125,0.8720703125,0.43896484375,0.61083984375
1969/12/31/18:00:08.035000,109,1731186117,415153437,RU_myo,0.7858244326595659,0.2109366399434143,-0.5389382322628323,-0.2180166892007743,-122.1875,-291.4375,52.5625,1.1083984375,0.47802734375,0.62548828125
1969/12/31/18:00:08.050000,110,1731186117,430230633,RU_myo,0.7649640974484394,0.1775537029823274,-0.5742266200267229,-0.2314484846026077,-119.3125,-283.75,55.0625,1.27734375,0.5302734375,0.60400390625
1969/12/31/18:00:08.070000,111,1731186117,449793428,RU_myo,0.7430270271928281,0.1441621355535945,-0.6060668950242142,-0.2445629454543832,-121.125,-274.375,51.9375,1.29345703125,0.52294921875,0.6689453125
1969/12/31/18:00:08.087000,112,1731186117,467621784,RU_myo,0.7186724382864204,0.1151096576312686,-0.6353003320699235,-0.2581727740086249,-106.625,-265.5625,29.75,1.16357421875,0.439453125,0.513671875
1969/12/31/18:00:08.109000,113,1731186117,488645566,RU_myo,0.6955596450833615,0.0876468629641722,-0.6594266765076026,-0.2714245122574332,-107.1875,-238.9375,25.1875,1.10498046875,0.45849609375,0.5224609375
1969/12/31/18:00:08.137000,114,1731186117,517214096,RU_myo,0.6749289917774559,0.0643923029775019,-0.6786521486320793,-0.2824106027269206,-90.1875,-203.25,20.0625,1.1923828125,0.52880859375,0.54248046875
1969/12/31/18:00:08.148000,115,1731186117,527635795,RU_myo,0.6567363582774182,0.0477293524324294,-0.6945780443491653,-0.289794073336541,-57.0,-168.4375,8.375,1.259765625,0.36669921875,0.451171875
1969/12/31/18:00:08.168000,116,1731186117,548517075,RU_myo,0.6417164730648877,0.0381465470482741,-0.7074506029384737,-0.2936978950340726,-21.75,-133.0625,-4.25,1.2470703125,0.2421875,0.505859375
1969/12/31/18:00:08.190000,117,1731186117,569750339,RU_myo,0.6340319028712635,0.0339354772811342,-0.7160019496132839,-0.2901605377599141,28.4375,-96.0625,-1.8125,1.1376953125,0.25439453125,0.3994140625
1969/12/31/18:00:08.207000,118,1731186117,587578055,RU_myo,0.6288378192882177,0.0356441120512781,-0.724295681014586,-0.2805142790884838,70.5,-67.125,8.3125,1.0107421875,0.31298828125,0.26513671875
1969/12/31/18:00:08.229000,119,1731186117,608973679,RU_myo,0.6270027360229029,0.0383293797549287,-0.7303944068904973,-0.2681835901961097,81.4375,-45.25,20.25,0.9921875,0.31201171875,0.279296875
1969/12/31/18:00:08.250000,120,1731186117,629747422,RU_myo,0.6265182002177561,0.0394892621082209,-0.7347932403722909,-0.2568938241321515,66.0625,-32.3125,23.5,0.97216796875,0.26806640625,0.20849609375
1969/12/31/18:00:08.268000,121,1731186117,647551650,RU_myo,0.6258559552023967,0.0445557682170615,-0.739320575908585,-0.2443853369056364,80.6875,-15.5625,20.375,0.90283203125,0.36865234375,0.01220703125
1969/12/31/18:00:08.288000,122,1731186117,667976333,RU_myo,0.6253752071549445,0.0537727461939787,-0.7434188974377537,-0.2309603536867372,99.1875,-7.125,12.0,0.9892578125,0.48974609375,-0.017578125
1969/12/31/18:00:08.310000,123,1731186117,690356251,RU_myo,0.6262015967595052,0.0623149932057948,-0.7454606532963544,-0.219719858512107,85.3125,0.9375,6.1875,1.07958984375,0.4951171875,0.0126953125
1969/12/31/18:00:08.327000,124,1731186117,706962012,RU_myo,0.6282264054009846,0.0696401757080077,-0.7461447397286541,-0.2091646644621757,74.625,12.25,9.75,1.04052734375,0.46484375,-0.0322265625
1969/12/31/18:00:08.349000,125,1731186117,729270885,RU_myo,0.6303751916001913,0.0792851833741913,-0.746464813446005,-0.1978162273408423,84.3125,21.75,7.0625,0.96044921875,0.4931640625,-0.1005859375
1969/12/31/18:00:08.370000,126,1731186117,750407114,RU_myo,0.6314782083405956,0.0914318921413311,-0.7468972390744123,-0.1871363026070236,90.1875,22.5,-7.125,0.93701171875,0.482421875,-0.14599609375
1969/12/31/18:00:08.387000,127,1731186117,766920485,RU_myo,0.6316589042679861,0.1041880132945649,-0.7479319946758046,-0.1753556896281693,95.1875,21.5,-12.6875,0.94384765625,0.3896484375,-0.216796875
1969/12/31/18:00:08.410000,128,1731186117,789420606,RU_myo,0.6319646091685417,0.1167004377757631,-0.7487871185319364,-0.1622331399623318,101.0625,20.5,-6.75,0.9453125,0.310546875,-0.2900390625
1969/12/31/18:00:08.430000,129,1731186117,810395218,RU_myo,0.630467717853772,0.1272531647362163,-0.751068319061812,-0.1490418361083166,92.25,15.3125,-2.0625,0.91845703125,0.3115234375,-0.3388671875
1969/12/31/18:00:08.447000,130,1731186117,826941186,RU_myo,0.6278606543100146,0.1355573552272326,-0.7537135433143162,-0.1390363148165853,71.5,6.75,-1.0625,0.8671875,0.341796875,-0.3720703125
1969/12/31/18:00:08.469000,131,1731186117,849344717,RU_myo,0.6258551718178452,0.1401979061503404,-0.7557381253606944,-0.1323243624440304,44.5625,2.3125,2.75,0.8642578125,0.33349609375,-0.31494140625
1969/12/31/18:00:08.490000,132,1731186117,870465609,RU_myo,0.6252980815823942,0.140379266729088,-0.7567663165973748,-0.1288437530717847,14.25,0.5,5.75,0.9072265625,0.27490234375,-0.2421875
1969/12/31/18:00:08.507000,133,1731186117,886928725,RU_myo,0.6253079443430046,0.1368414261802846,-0.7576327489633692,-0.1275030059280172,-9.4375,-2.375,10.6875,0.93701171875,0.212890625,-0.2275390625
1969/12/31/18:00:08.535000,134,1731186117,915427490,RU_myo,0.6250567751471947,0.1310415873685213,-0.7590280300488735,-0.1265250165882369,-18.6875,-6.375,18.8125,0.9423828125,0.201171875,-0.24462890625
1969/12/31/18:00:08.550000,135,1731186117,930490663,RU_myo,0.6244482131202127,0.1251826102149894,-0.7606781429104889,-0.1255488197036729,-17.6875,-8.4375,23.875,0.9345703125,0.263671875,-0.244140625
1969/12/31/18:00:08.567000,136,1731186117,946850765,RU_myo,0.6240759590619288,0.1202986518641625,-0.7618914618063626,-0.1248151918123857,-13.875,-8.5625,22.75,0.95849609375,0.32763671875,-0.208984375
1969/12/31/18:00:08.589000,137,1731186117,969421727,RU_myo,0.6239829897750793,0.1170082550522182,-0.7625984030372532,-0.1240885667820342,-7.375,-6.0,18.125,0.97216796875,0.3662109375,-0.1806640625
1969/12/31/18:00:08.610000,138,1731186117,990384688,RU_myo,0.6240023050125735,0.1153525387787327,-0.762974649350761,-0.123225807298551,-1.5,-2.4375,11.9375,0.9775390625,0.37353515625,-0.19482421875
1969/12/31/18:00:08.610000,1,1731186123,723486820,RU_myo,0.6895916970270346,0.4444686438087153,-0.5060545901974812,-0.2661196494103267,-188.625,116.3125,-201.875,0.73876953125,0.59130859375,0.28173828125
1969/12/31/18:00:08.631000,2,1731186123,744518222,RU_myo,0.7121567665319884,0.4382925728887735,-0.4622183058747642,-0.2951043851715945,-231.25,155.375,-178.625,0.57177734375,0.61767578125,0.26171875
1969/12/31/18:00:08.652000,3,1731186123,765529758,RU_myo,0.7403006900501449,0.4236480410287786,-0.412112314223644,-0.3203758201066213,-280.6875,191.375,-147.1875,0.43896484375,0.45654296875,0.3017578125
1969/12/31/18:00:08.668000,4,1731186123,781973115,RU_myo,0.7668334495060112,0.4076472945917422,-0.3629702741334168,-0.3377021232184622,-261.3125,201.5,-111.9375,0.50244140625,0.4453125,0.38427734375
1969/12/31/18:00:08.690000,5,1731186123,804409729,RU_myo,0.7904486894718482,0.3934238477596736,-0.3158498932913917,-0.3473433319268232,-227.4375,208.8125,-83.1875,0.5234375,0.51416015625,0.4404296875
1969/12/31/18:00:08.711000,6,1731186123,825473972,RU_myo,0.8117324842452499,0.3795897676157011,-0.2732020903437656,-0.3498036594638339,-196.875,202.5625,-46.6875,0.54296875,0.37158203125,0.5107421875
1969/12/31/18:00:08.728000,7,1731186123,841756840,RU_myo,0.8294695146626313,0.3724373052591152,-0.2368779386611973,-0.3422858747776333,-128.75,202.375,-3.375,0.47705078125,0.26953125,0.55029296875
1969/12/31/18:00:08.751000,8,1731186123,864553405,RU_myo,0.8410998512244584,0.3773352162750074,-0.208932132854958,-0.3263687158561088,-30.875,195.625,26.875,0.4072265625,0.22509765625,0.49609375
1969/12/31/18:00:08.771000,9,1731186123,885473058,RU_myo,0.8482398319035767,0.3908849308131615,-0.1868971983369613,-0.3045777334100056,38.125,190.625,49.8125,0.36328125,0.22998046875,0.45068359375
1969/12/31/18:00:08.789000,10,1731186123,903304589,RU_myo,0.8523371944072218,0.4085285621718372,-0.1700523792336379,-0.2787613840488242,78.5625,177.3125,72.875,0.27197265625,0.40185546875,0.58056640625
1969/12/31/18:00:08.810000,11,1731186123,924508941,RU_myo,0.8524613478683368,0.4322124304923165,-0.1570516288175018,-0.24867016548873,123.1875,173.4375,91.5625,0.21240234375,0.8837890625,0.57470703125
1969/12/31/18:00:08.831000,12,1731186123,945439445,RU_myo,0.8507745989141676,0.4548369546673633,-0.1441659805319796,-0.2202773174174066,115.75,165.1875,83.0,0.1357421875,1.01416015625,0.23388671875
1969/12/31/18:00:08.848000,13,1731186123,962088780,RU_myo,0.8540807084590866,0.4641198961711494,-0.1248802350823476,-0.1988562101164656,22.75,164.5,50.4375,0.0517578125,0.876953125,0.06982421875
1969/12/31/18:00:08.870000,14,1731186123,984481875,RU_myo,0.86037328721496,0.4647334143625642,-0.1036403122652527,-0.1817672849975986,-29.0625,155.75,32.8125,0.095703125,0.71240234375,0.2236328125
1969/12/31/18:00:08.891000,15,1731186124,5425550,RU_myo,0.8638313403410107,0.4684452439141707,-0.0872803516348226,-0.1635133300906922,-0.1875,135.8125,46.625,0.09130859375,0.70751953125,0.2578125
1969/12/31/18:00:08.908000,16,1731186124,21902884,RU_myo,0.8653210879020216,0.473646867610897,-0.0771507268891976,-0.1446576129172456,20.3125,106.8125,64.1875,0.03369140625,0.62890625,0.3076171875
1969/12/31/18:00:08.930000,17,1731186124,44499028,RU_myo,0.8637055236476013,0.4823932687906002,-0.0730029545075993,-0.1264123066766206,41.0625,77.5625,72.5625,0.0322265625,0.7216796875,0.25634765625
1969/12/31/18:00:08.951000,18,1731186124,65376137,RU_myo,0.8594039903372097,0.4942183316591184,-0.0722680628238108,-0.1093176524640584,58.375,59.6875,71.3125,0.0693359375,0.77734375,0.14306640625
1969/12/31/18:00:08.968000,19,1731186124,81960918,RU_myo,0.8526126263857438,0.5084913587529265,-0.0737925882525853,-0.0950941708002712,69.9375,42.125,59.5625,0.111328125,0.9951171875,0.1103515625
1969/12/31/18:00:08.990000,20,1731186124,104568373,RU_myo,0.8446701670795009,0.5230131267941501,-0.076172293411028,-0.0847782977146778,79.0,24.8125,44.75,0.08349609375,1.15234375,0.2392578125
1969/12/31/18:00:09.013000,21,1731186124,126901179,RU_myo,0.8386017394498906,0.5334115001857918,-0.0790442719694015,-0.0772741685816698,54.3125,11.6875,37.9375,0.0556640625,1.08984375,0.21142578125
1969/12/31/18:00:09.027000,22,1731186124,141254440,RU_myo,0.8370308479457995,0.5359854062431317,-0.0827081454799503,-0.072514595446628,5.5625,-1.1875,31.125,0.08447265625,1.01171875,0.21484375
1969/12/31/18:00:09.050000,23,1731186124,164384685,RU_myo,0.8365816461157388,0.5363986214843947,-0.0864903102689334,-0.0701932652147307,-0.25,-9.0,18.4375,0.13427734375,1.0205078125,0.36181640625
1969/12/31/18:00:09.071000,24,1731186124,185451896,RU_myo,0.8352964811270754,0.5380444633639145,-0.089236642704259,-0.0694605331035887,8.375,-8.5625,6.0,0.1455078125,0.91357421875,0.33251953125
1969/12/31/18:00:09.087000,25,1731186124,201301541,RU_myo,0.8343329492091629,0.5390295028506926,-0.0915574968039903,-0.0703771958766672,10.0625,-12.1875,-2.5625,0.140625,0.84130859375,0.39990234375
1969/12/31/18:00:09.111000,26,1731186124,224559368,RU_myo,0.8315083659204159,0.5426197880813696,-0.0952178705744585,-0.0713523658343218,30.6875,-15.75,-8.0,0.2763671875,1.08251953125,0.52001953125
1969/12/31/18:00:09.132000,27,1731186124,245472833,RU_myo,0.8303288712142319,0.5440106754728351,-0.0974128843323959,-0.0715337722039899,17.8125,-6.0,-8.9375,0.32470703125,1.294921875,0.654296875
1969/12/31/18:00:09.155000,28,1731186124,269449399,RU_myo,0.832772122631863,0.5404107573865813,-0.0966806685905065,-0.0714118574816241,-11.1875,7.0625,-9.1875,0.251953125,0.98974609375,0.642578125
1969/12/31/18:00:09.170000,29,1731186124,284368897,RU_myo,0.8345602083098137,0.5378588865374152,-0.0960723884940866,-0.070619919623671,-14.125,8.875,-5.0,0.205078125,0.71240234375,0.3701171875
1969/12/31/18:00:09.191000,30,1731186124,305397841,RU_myo,0.8334507459756906,0.5394388643671295,-0.0971087613948973,-0.0702527871562079,9.875,-2.25,0.4375,0.12548828125,0.80517578125,0.32275390625
1969/12/31/18:00:09.207000,31,1731186124,321316491,RU_myo,0.8311392311523031,0.5429230712418107,-0.0980252335485495,-0.0695210093473212,28.75,-2.0625,2.8125,0.09375,0.88037109375,0.44580078125
1969/12/31/18:00:09.230000,32,1731186124,344523506,RU_myo,0.8287413625616008,0.5467568954063058,-0.0979621363169369,-0.0681767640286719,29.3125,4.5625,2.3125,0.087890625,0.80810546875,0.3779296875
1969/12/31/18:00:09.251000,33,1731186124,365438580,RU_myo,0.825404067393419,0.5521411812202077,-0.0965606178079116,-0.0672628323794681,33.0625,9.25,-2.625,0.052734375,0.86669921875,0.30615234375
1969/12/31/18:00:09.267000,34,1731186124,381291312,RU_myo,0.8222273071597002,0.5572663732735552,-0.0946681429296039,-0.0665911953166975,31.6875,10.4375,-3.875,0.03125,0.88671875,0.30615234375
1969/12/31/18:00:09.291000,35,1731186124,404585315,RU_myo,0.8198626769446791,0.5609393985349613,-0.0933881697234484,-0.0667145552338098,23.25,4.5,-4.6875,0.0283203125,0.87548828125,0.32080078125
1969/12/31/18:00:09.313000,36,1731186124,426936907,RU_myo,0.817599050785182,0.564292887234715,-0.0932044606606176,-0.0664699788208333,25.625,2.0,-3.375,0.07861328125,0.75341796875,0.318359375
1969/12/31/18:00:09.327000,37,1731186124,441400155,RU_myo,0.8136232129376869,0.5700245450581439,-0.0946073503415915,-0.0643329982322822,40.9375,2.125,5.3125,0.146484375,0.87890625,0.29833984375
1969/12/31/18:00:09.350000,38,1731186124,464406204,RU_myo,0.8100258127002352,0.5754595254417766,-0.094241568443159,-0.0618307699695078,41.0,11.125,1.8125,0.1630859375,1.095703125,0.41552734375
1969/12/31/18:00:09.373000,39,1731186124,486988494,RU_myo,0.8086423404086787,0.5782818186165325,-0.0900933042303147,-0.0597570087001884,27.4375,25.625,-6.8125,0.09033203125,1.017578125,0.48974609375
1969/12/31/18:00:09.394000,40,1731186124,507945563,RU_myo,0.8080177986024661,0.5801028220212902,-0.0850866302501766,-0.0578637915905074,15.25,28.125,-5.3125,0.0078125,0.87158203125,0.36865234375
1969/12/31/18:00:09.410000,41,1731186124,524493157,RU_myo,0.8070197304162241,0.5821015859158621,-0.0817884161819498,-0.0564584216181369,12.4375,18.5625,-1.3125,-0.0048828125,0.8935546875,0.29443359375
1969/12/31/18:00:09.433000,42,1731186124,547016035,RU_myo,0.8047026133027754,0.5857043596217713,-0.0799575563885494,-0.0548716360254243,28.25,13.4375,-0.5625,0.052734375,0.90673828125,0.34375
1969/12/31/18:00:09.454000,43,1731186124,567911029,RU_myo,0.8010865557781403,0.5911706257780622,-0.0776426469788017,-0.052433202637414,49.0625,18.5625,-2.1875,0.0859375,0.88671875,0.43701171875
1969/12/31/18:00:09.470000,44,1731186124,584344560,RU_myo,0.7959779656464203,0.5987077574592238,-0.0741594377931447,-0.0496837714926912,55.1875,24.3125,-1.4375,0.0146484375,0.8818359375,0.294921875
1969/12/31/18:00:09.493000,45,1731186124,606895539,RU_myo,0.7903872412610503,0.6066003864122571,-0.0707435950746434,-0.0481593585106933,49.0625,18.5,-0.5625,-0.08056640625,0.9794921875,0.17578125
1969/12/31/18:00:09.516000,46,1731186124,629606222,RU_myo,0.7855736117907194,0.6130770285024075,-0.0683638263563019,-0.0483429914948135,42.75,7.625,-3.5625,-0.0927734375,1.00732421875,0.2080078125
1969/12/31/18:00:09.530000,47,1731186124,644442004,RU_myo,0.7827768485004579,0.6165168769359162,-0.0682373892104102,-0.0501099253503996,23.0625,-7.1875,-4.75,-0.041015625,1.00390625,0.2177734375
1969/12/31/18:00:09.553000,48,1731186124,666939428,RU_myo,0.7831972015680709,0.6157049467864649,-0.0682421067222432,-0.0534095200196447,-7.6875,-12.125,-12.9375,0.03125,1.20068359375,0.2685546875
1969/12/31/18:00:09.574000,49,1731186124,687969402,RU_myo,0.7869995597145438,0.6106052113684114,-0.0659189952296965,-0.0587167346397852,-39.25,-8.4375,-28.125,0.03076171875,1.302734375,0.326171875
1969/12/31/18:00:09.590000,50,1731186124,704366028,RU_myo,0.7946539941651556,0.600431011644722,-0.0609769828843221,-0.065493796431309,-76.5625,-1.9375,-41.4375,0.02197265625,1.16455078125,0.337890625
1969/12/31/18:00:09.620000,51,1731186124,734446319,RU_myo,0.8033253288081206,0.5885925192384095,-0.0548124113114271,-0.0722693708159573,-83.875,4.0625,-47.6875,0.04833984375,1.05224609375,0.3984375
1969/12/31/18:00:09.634000,52,1731186124,748067342,RU_myo,0.8112491032275193,0.5775366048257308,-0.0466326322222424,-0.0784331575989287,-74.6875,16.5625,-54.6875,0.0625,1.05322265625,0.48681640625
1969/12/31/18:00:09.650000,53,1731186124,764183337,RU_myo,0.8181355237801221,0.5678241403854429,-0.0350350485414645,-0.0836812744779578,-62.4375,34.9375,-58.6875,-0.01220703125,0.85107421875,0.5087890625
1969/12/31/18:00:09.673000,54,1731186124,786795451,RU_myo,0.8223368875264048,0.5618356008075822,-0.0231936478334471,-0.0869761793754269,-36.0,43.75,-52.0625,-0.0302734375,0.7802734375,0.494140625
1969/12/31/18:00:09.694000,55,1731186124,808096728,RU_myo,0.8232327632860762,0.560765136524741,-0.0125740304913569,-0.0875909405587246,4.5,49.9375,-38.4375,-0.03369140625,0.7255859375,0.5654296875
1969/12/31/18:00:09.710000,56,1731186124,824465147,RU_myo,0.821432105290897,0.5636130227564381,-0.0018311014384549,-0.0870993917558411,24.6875,54.375,-33.5,-0.08203125,0.80712890625,0.4833984375
1969/12/31/18:00:09.733000,57,1731186124,846990762,RU_myo,0.8193097557764542,0.5667965724607132,0.0098881159529006,-0.0858801181835261,13.8125,60.0625,-32.125,-0.12548828125,0.8798828125,0.30859375
1969/12/31/18:00:09.754000,58,1731186124,867859925,RU_myo,0.8194217752765353,0.5666675427685179,0.0210577662920226,-0.0836206951306408,-5.4375,59.9375,-26.125,-0.11279296875,0.84765625,0.34130859375
1969/12/31/18:00:09.770000,59,1731186124,884506461,RU_myo,0.8163071333351385,0.5709389057287936,0.0300301412891347,-0.0822777041824261,27.625,50.1875,-26.5,-0.080078125,0.77392578125,0.31787109375
1969/12/31/18:00:09.793000,60,1731186124,906906091,RU_myo,0.8117098232148149,0.5771331311848454,0.0385162354074709,-0.0810000703418603,36.125,48.0,-25.8125,-0.0869140625,0.77783203125,0.22265625
1969/12/31/18:00:09.814000,61,1731186124,927972393,RU_myo,0.8078375355152247,0.5822411976788613,0.0466330092280794,-0.0788610574904171,26.125,47.5,-18.75,-0.12890625,0.85009765625,0.19775390625
1969/12/31/18:00:09.830000,62,1731186124,944417893,RU_myo,0.8053292090623476,0.5855940906278735,0.0532247286874615,-0.0754423906625027,17.4375,44.0,-7.875,-0.1298828125,0.79248046875,0.22021484375
1969/12/31/18:00:09.853000,63,1731186124,967092913,RU_myo,0.805152797735331,0.5859041547616892,0.0586575573211775,-0.0707430894227313,-2.625,40.9375,3.375,-0.14404296875,0.78955078125,0.2490234375
1969/12/31/18:00:09.877000,64,1731186124,990886128,RU_myo,0.8066285986657077,0.584019858648013,0.0636024971479127,-0.0650063910388935,-15.0,41.0625,10.375,-0.16650390625,0.81982421875,0.30859375
1969/12/31/18:00:09.898000,65,1731186125,11943293,RU_myo,0.8087578251586569,0.5813290208913999,0.0673863123754835,-0.0585357550435586,-16.25,38.9375,16.25,-0.1494140625,0.8232421875,0.38671875
1969/12/31/18:00:09.913000,66,1731186125,26842306,RU_myo,0.8103417361602492,0.5796177407786778,0.0698886176486505,-0.0500512370933567,-12.6875,39.75,29.5,-0.12255859375,0.7734375,0.33642578125
1969/12/31/18:00:09.934000,67,1731186125,48169196,RU_myo,0.8106364090378076,0.5794881460285329,0.0727564640895314,-0.0420547011389992,-11.625,37.875,30.3125,-0.19140625,0.85595703125,0.1953125
1969/12/31/18:00:09.950000,68,1731186125,64306961,RU_myo,0.8109484839840636,0.5793099549520359,0.0747102923676421,-0.0343642929762929,-9.5625,32.5625,32.625,-0.19580078125,0.84423828125,0.2265625
1969/12/31/18:00:09.973000,69,1731186125,87007388,RU_myo,0.8095088018265415,0.5817695966075077,0.0742853424689263,-0.0268574779674014,12.75,24.5,35.4375,-0.10302734375,0.7666015625,0.2509765625
1969/12/31/18:00:09.978000,70,1731186125,92494325,RU_myo,0.8060141724918136,0.5870688611152035,0.0728190009680222,-0.0197154545789364,27.625,19.0,37.25,-0.09716796875,0.88720703125,0.19775390625
1969/12/31/18:00:10.001000,71,1731186125,114939386,RU_myo,0.8030705301304839,0.591392442535096,0.071780112748609,-0.0134282523849438,16.375,16.875,33.0625,-0.1318359375,1.0693359375,0.1640625
1969/12/31/18:00:10.017000,72,1731186125,131134409,RU_myo,0.8012401988376402,0.5941397193178631,0.0703152821711709,-0.0082400721294341,11.1875,11.25,29.0,-0.1220703125,1.04150390625,0.2236328125
1969/12/31/18:00:10.038000,73,1731186125,152373101,RU_myo,0.8005606745305329,0.5953544388053384,0.0681172394614268,-0.0039674019399576,1.5625,4.8125,25.6875,-0.08642578125,0.95263671875,0.216796875
1969/12/31/18:00:10.061000,74,1731186125,174838053,RU_myo,0.8009228501634033,0.5951683212881683,0.0655533562776631,0.0001220732891576,-10.0,2.25,23.9375,-0.0625,1.0,0.20068359375
1969/12/31/18:00:10.076000,75,1731186125,189833714,RU_myo,0.8009765670507729,0.5953459906281521,0.0631723498359788,0.0029907682531043,-4.5625,-0.375,17.3125,-0.044921875,1.04736328125,0.25
1969/12/31/18:00:10.098000,76,1731186125,212306826,RU_myo,0.8012571487083038,0.5951899487357866,0.0609167848259988,0.0050051867291902,-2.125,-2.8125,14.0,-0.0498046875,0.93408203125,0.28076171875
1969/12/31/18:00:10.121000,77,1731186125,234894153,RU_myo,0.8006140683629367,0.5963253371888306,0.0579845517225577,0.0071412553174097,7.625,-5.125,17.6875,-0.0400390625,0.8828125,0.27783203125
1969/12/31/18:00:10.136000,78,1731186125,249878709,RU_myo,0.7989212934941519,0.5987789662447575,0.0556052638378159,0.0098270554093176,17.3125,-0.4375,17.875,-0.0322265625,1.02392578125,0.31103515625
1969/12/31/18:00:10.158000,79,1731186125,272184931,RU_myo,0.7975595281826546,0.6005958335744487,0.0549325457537605,0.0128786301711594,18.0625,8.3125,16.125,-0.064453125,0.98046875,0.3720703125
1969/12/31/18:00:10.181000,80,1731186125,294790602,RU_myo,0.7962216922130816,0.6023696343772252,0.0542004494201009,0.0156253547877768,9.125,5.8125,17.125,-0.0830078125,0.9248046875,0.21875
1969/12/31/18:00:10.196000,81,1731186125,309798983,RU_myo,0.7956427057399419,0.603186898206529,0.0529818080999056,0.0176402563834939,0.4375,1.375,13.625,-0.06640625,0.9736328125,0.20166015625
1969/12/31/18:00:10.218000,82,1731186125,332216986,RU_myo,0.7950596431557403,0.6040158320796258,0.0518809071612451,0.0187991993007805,1.1875,-0.5625,7.0625,-0.03125,1.04345703125,0.22900390625
1969/12/31/18:00:10.241000,83,1731186125,354839627,RU_myo,0.7955176861731215,0.6034288226430967,0.0515777215388849,0.0191051205226875,-4.0625,-0.375,2.0625,-0.05517578125,0.9609375,0.2734375
1969/12/31/18:00:10.256000,84,1731186125,369910354,RU_myo,0.7957874887348166,0.6031578435095458,0.0505988516767267,0.0190432348891902,-1.9375,-4.8125,3.0625,-0.05615234375,0.88916015625,0.25048828125
1969/12/31/18:00:10.278000,85,1731186125,392267369,RU_myo,0.7957904429973648,0.6032821551300778,0.0489510611507812,0.019287450528238,-4.5,-6.875,5.6875,-0.0419921875,0.982421875,0.20263671875
1969/12/31/18:00:10.296000,86,1731186125,410188293,RU_myo,0.7963496395202824,0.6026792627135179,0.0473036690908422,0.019165615605838,-10.5625,-8.3125,4.625,-0.0498046875,1.0224609375,0.203125
1969/12/31/18:00:10.316000,87,1731186125,429787384,RU_myo,0.7979902729284939,0.600659497926366,0.0456552489024409,0.0183109287041875,-17.875,-10.75,0.1875,-0.04150390625,0.96923828125,0.228515625
1969/12/31/18:00:10.338000,88,1731186125,452301929,RU_myo,0.7993638658528148,0.598973550367568,0.0438868829832142,0.0179454013867385,-3.75,-8.9375,3.4375,-0.03515625,0.791015625,0.35986328125
1969/12/31/18:00:10.361000,89,1731186125,474900639,RU_myo,0.79763545180642,0.60140052851612,0.0415664021028598,0.0191657125701879,21.25,-4.9375,10.5625,0.0205078125,0.78173828125,0.29248046875
1969/12/31/18:00:10.376000,90,1731186125,489907544,RU_myo,0.7951296535700869,0.604755093849115,0.039796156761165,0.0213629675865149,26.5,1.3125,12.25,0.0361328125,0.94677734375,0.3125
1969/12/31/18:00:10.398000,91,1731186125,512310761,RU_myo,0.7908581369477298,0.6103102964683452,0.0394299881506701,0.0225837393432631,38.3125,3.5,4.9375,0.01025390625,1.2060546875,0.29345703125
1969/12/31/18:00:10.421000,92,1731186125,534956752,RU_myo,0.7914295630617258,0.6095338282226125,0.0397973218507053,0.0228895639478749,-2.9375,2.0625,3.125,-0.087890625,1.12451171875,0.33251953125
1969/12/31/18:00:10.436000,93,1731186125,549828762,RU_myo,0.7940835820363803,0.6060914657664301,0.0402840249149893,0.0214848132879943,-27.375,-3.375,-7.6875,-0.060546875,1.00048828125,0.228515625
1969/12/31/18:00:10.458000,94,1731186125,572228294,RU_myo,0.7971667014270195,0.6020867031298713,0.0404687230510041,0.0194713765509356,-30.0625,-6.9375,-9.3125,-0.0703125,0.90234375,0.22998046875
1969/12/31/18:00:10.481000,95,1731186125,594832017,RU_myo,0.799910145221828,0.5985439819950588,0.039125707980709,0.0189219492574411,-24.9375,-8.1875,0.1875,-0.0244140625,0.85205078125,0.263671875
1969/12/31/18:00:10.496000,96,1731186125,609727964,RU_myo,0.8006929861215311,0.5975594095235394,0.0382706588121817,0.0186775464059451,-2.5625,-4.125,-0.3125,-0.0107421875,0.873046875,0.32666015625
1969/12/31/18:00:10.518000,97,1731186125,632320453,RU_myo,0.7996535482030694,0.598900894204146,0.0387588736057514,0.0192268428123018,15.75,4.875,-0.25,-0.0146484375,0.89697265625,0.35009765625
1969/12/31/18:00:10.541000,98,1731186125,654782097,RU_myo,0.7974139924660514,0.6017838756676975,0.039858491815702,0.0199597654268523,20.75,7.875,0.375,-0.03564453125,0.93994140625,0.26708984375
1969/12/31/18:00:10.556000,99,1731186125,669925505,RU_myo,0.7961114115582105,0.6034161937180457,0.0408950889936365,0.0205696193893365,8.5625,6.625,0.125,-0.04638671875,0.98388671875,0.2236328125
1969/12/31/18:00:10.578000,100,1731186125,692200120,RU_myo,0.7962654768060057,0.6031352377401412,0.0418123305183682,0.0209977251070345,-3.375,5.5,-1.375,-0.0419921875,1.0244140625,0.26318359375
1969/12/31/18:00:10.601000,101,1731186125,714818351,RU_myo,0.796834594285846,0.6023105152365169,0.0426036420384159,0.0214849312285421,-4.5,6.0625,-3.375,-0.00634765625,0.9365234375,0.28515625
1969/12/31/18:00:10.616000,102,1731186125,729758443,RU_myo,0.796886031512133,0.6021811877220209,0.0430914168388147,0.0222171044324767,-0.8125,5.1875,-0.1875,-0.01123046875,0.89453125,0.25341796875
1969/12/31/18:00:10.638000,103,1731186125,752349261,RU_myo,0.7958622671781845,0.6034734439443754,0.0431532036885479,0.0236823805249739,7.9375,6.25,3.9375,0.0009765625,0.9638671875,0.25146484375
1969/12/31/18:00:10.656000,104,1731186125,770433644,RU_myo,0.7951925969959504,0.6042072089087284,0.0440688559280838,0.0256966597586195,8.125,11.4375,4.75,-0.0146484375,0.94677734375,0.3017578125
1969/12/31/18:00:10.676000,105,1731186125,789781130,RU_myo,0.7944510612700538,0.6049937706905941,0.0454111547007467,0.0277105702071761,5.3125,12.5,8.0,-0.08154296875,0.87060546875,0.22998046875
1969/12/31/18:00:10.698000,106,1731186125,812282683,RU_myo,0.7936750868072059,0.6059226783615422,0.0460225344499448,0.0286267488819948,-2.1875,5.0625,4.4375,-0.06396484375,0.87841796875,0.107421875
1969/12/31/18:00:10.716000,107,1731186125,830397220,RU_myo,0.7940103837472284,0.6055328631836616,0.0452883161457793,0.0287477047232642,-10.8125,-2.5,-0.5625,0.013671875,0.88525390625,0.12646484375
1969/12/31/18:00:10.736000,108,1731186125,849815869,RU_myo,0.795455251572354,0.6037939954384381,0.0428491088554168,0.0291154201197063,-24.375,-8.6875,3.3125,0.05517578125,0.98828125,0.10986328125
1969/12/31/18:00:10.758000,109,1731186125,872234167,RU_myo,0.7992853453636167,0.5989604500995166,0.0397964142937822,0.0283824120346759,-47.25,-16.25,3.125,0.001953125,1.02587890625,0.12939453125
1969/12/31/18:00:10.776000,110,1731186125,890341732,RU_myo,0.806815295397994,0.589149737568576,0.0358910117789393,0.0257585152563136,-83.3125,-26.375,-5.4375,0.02099609375,1.03173828125,0.1416015625
1969/12/31/18:00:10.803000,111,1731186125,917308584,RU_myo,0.8178557336988718,0.574189781842323,0.0317400538490494,0.0202648036113161,-109.8125,-37.375,-17.625,0.0546875,1.005859375,0.1337890625
1969/12/31/18:00:10.818000,112,1731186125,932343768,RU_myo,0.8306055169016355,0.5561785324814597,0.0251476685011371,0.0112920356133746,-132.3125,-60.4375,-26.6875,0.04052734375,1.1103515625,0.0185546875
1969/12/31/18:00:10.837000,113,1731186125,950481866,RU_myo,0.8461904514329863,0.5326916302139271,0.0139780432358186,-0.0024415796045098,-170.375,-97.8125,-34.3125,-0.02099609375,1.13427734375,-0.1005859375
1969/12/31/18:00:10.857000,114,1731186125,971374853,RU_myo,0.8649564499107311,0.5014806430362407,0.0004272595546803,-0.0191656428813753,-217.625,-118.875,-43.125,0.02294921875,0.88671875,-0.17138671875
1969/12/31/18:00:10.878000,115,1731186125,992257653,RU_myo,0.8827189174196802,0.4679716456822492,-0.0147099473861252,-0.0399182804586136,-222.9375,-137.25,-59.5625,0.1220703125,0.646484375,-0.0771484375
1969/12/31/18:00:10.896000,116,1731186126,10282633,RU_myo,0.8954192832467105,0.4395306243121719,-0.0313732455070762,-0.0636620526534641,-179.75,-151.5625,-73.1875,0.197265625,0.52978515625,0.14111328125
1969/12/31/18:00:10.917000,117,1731186126,31208361,RU_myo,0.9018119334576288,0.4199300238367841,-0.0514536351881408,-0.0880144032518376,-114.6875,-168.0625,-71.625,0.2265625,0.45654296875,0.30078125
1969/12/31/18:00:10.938000,118,1731186126,52318823,RU_myo,0.9031917648211036,0.4074953181013507,-0.0774582921915239,-0.1104192675921725,-60.5,-191.9375,-51.6875,0.24951171875,0.3681640625,0.3671875
1969/12/31/18:00:10.956000,119,1731186126,70205446,RU_myo,0.9011164038598208,0.3990109010385185,-0.108832252799706,-0.130134808171045,-26.3125,-211.3125,-30.5625,0.35546875,0.25341796875,0.34423828125
1969/12/31/18:00:10.977000,120,1731186126,91427006,RU_myo,0.8956104820041837,0.3941223255163235,-0.1442938171783473,-0.1474067548585908,5.9375,-224.9375,-14.875,0.50439453125,0.24609375,0.42333984375
1969/12/31/18:00:11.007000,121,1731186126,121349716,RU_myo,0.8868472791937902,0.3928861621590108,-0.1827405887065525,-0.1604625944253595,38.9375,-229.9375,6.0,0.65869140625,0.31640625,0.50927734375
1969/12/31/18:00:11.016000,122,1731186126,130166755,RU_myo,0.8762019962960478,0.3916204812424551,-0.2244981499391754,-0.1688313982413701,50.4375,-239.3125,36.25,0.66455078125,0.41357421875,0.56103515625
1969/12/31/18:00:11.037000,123,1731186126,151449334,RU_myo,0.8654772485334066,0.385192307157569,-0.269469820329689,-0.1730954497066813,31.3125,-252.4375,72.25,0.64599609375,0.53955078125,0.50048828125
1969/12/31/18:00:11.058000,124,1731186126,172374460,RU_myo,0.8560126213844779,0.3695655203196444,-0.3155497506280036,-0.1763294447900004,-16.125,-262.75,96.25,0.70458984375,0.66748046875,0.44091796875
1969/12/31/18:00:11.076000,125,1731186126,190198266,RU_myo,0.8474609616087971,0.3448436754115739,-0.3596750051682132,-0.1831028365017206,-71.0,-269.4375,93.125,0.7431640625,0.73046875,0.513671875
1969/12/31/18:00:11.099000,126,1731186126,212753235,RU_myo,0.838454001889886,0.3107962275331804,-0.4035712208266671,-0.1937288346799518,-122.3125,-287.0,91.9375,0.78515625,0.552734375,0.48095703125
1969/12/31/18:00:11.118000,127,1731186126,232336842,RU_myo,0.8267750440872159,0.2690406315027645,-0.4493369167702705,-0.2053204819363202,-154.3125,-312.375,104.375,0.87255859375,0.3798828125,0.4267578125
1969/12/31/18:00:11.136000,128,1731186126,250265784,RU_myo,0.8094551687183891,0.2292500085738402,-0.4955486740178405,-0.2160052663319543,-133.0625,-326.4375,98.25,0.96630859375,0.40966796875,0.462890625
1969/12/31/18:00:11.157000,129,1731186126,271352004,RU_myo,0.7879662991728124,0.1957403502282888,-0.5393693404949762,-0.2233283260010318,-89.6875,-317.3125,85.5625,1.16650390625,0.32763671875,0.60546875
1969/12/31/18:00:11.178000,130,1731186126,292316413,RU_myo,0.764234820100309,0.16894832537638,-0.5799053610552699,-0.2260782504313988,-45.125,-298.0,77.625,1.31005859375,0.24365234375,0.7265625
1969/12/31/18:00:11.204000,131,1731186126,317892660,RU_myo,0.7383042629362795,0.1464889410587856,-0.6189768130321438,-0.2243111909962654,-11.1875,-292.125,81.625,1.25,0.37451171875,0.75927734375
1969/12/31/18:00:11.219000,132,1731186126,332960492,RU_myo,0.710508574481466,0.1249997045389607,-0.6553939586617973,-0.2236322839017345,-13.875,-288.5,74.9375,1.25732421875,0.69775390625,0.72509765625
1969/12/31/18:00:11.238000,133,1731186126,352219010,RU_myo,0.6862995728074106,0.1016265375955477,-0.6839191313862537,-0.2256536393337777,-46.0,-244.5,69.875,1.28125,0.70947265625,0.43212890625
1969/12/31/18:00:11.256000,134,1731186126,370381111,RU_myo,0.6651513291454323,0.0781238485324053,-0.7059832468549473,-0.2303432846572638,-65.9375,-211.6875,61.3125,1.19482421875,0.6767578125,0.560546875
1969/12/31/18:00:11.286000,135,1731186126,400443595,RU_myo,0.6489640444160705,0.0580423969001865,-0.7202506054880135,-0.2381508230331521,-77.3125,-159.9375,33.875,1.29296875,0.41064453125,0.57275390625
1969/12/31/18:00:11.298000,136,1731186126,412350799,RU_myo,0.637983597481971,0.0462023900596816,-0.7295949415765313,-0.2419369540245415,-39.375,-106.6875,18.125,1.21630859375,0.24365234375,0.49169921875
1969/12/31/18:00:11.316000,137,1731186126,430374868,RU_myo,0.6342149784316926,0.0405882937789505,-0.733885179546018,-0.2398676609793621,8.6875,-71.5625,15.3125,1.09228515625,0.29833984375,0.4140625
1969/12/31/18:00:11.338000,138,1731186126,451887945,RU_myo,0.6326893207428436,0.0446166210170768,-0.7368151147991132,-0.2341304490034292,53.625,-34.375,1.75,1.01806640625,0.443359375,0.2763671875
1969/12/31/18:00:11.358000,139,1731186126,472232120,RU_myo,0.6354747291235475,0.053831032566939,-0.7365452392492289,-0.225333528613536,80.125,2.6875,-6.5625,1.11328125,0.44384765625,0.27001953125
1969/12/31/18:00:11.358000,1,1731186132,923848178,RU_myo,0.8538323836464983,0.2076444184119942,-0.3364303451754591,-0.3386276406083903,-141.1875,257.375,35.3125,0.81591796875,0.41259765625,0.62451171875
1969/12/31/18:00:11.381000,2,1731186132,947141044,RU_myo,0.8739104144633303,0.2067282144005656,-0.2966949661060377,-0.324832464434547,-78.125,254.375,55.125,0.8125,0.3623046875,0.60693359375
1969/12/31/18:00:11.404000,3,1731186132,969639037,RU_myo,0.888895620483478,0.2149146109814136,-0.2655150689489205,-0.3052507723709314,1.125,224.6875,70.625,0.689453125,0.33056640625,0.7822265625
1969/12/31/18:00:11.418000,4,1731186132,983833558,RU_myo,0.9000322481039906,0.2312642199963393,-0.2404195731236687,-0.2804589841338557,64.4375,209.9375,85.4375,0.67529296875,0.33251953125,0.6123046875
1969/12/31/18:00:11.441000,5,1731186133,7182131,RU_myo,0.9090201141779756,0.2544011170277178,-0.2136896138949232,-0.2515934271564906,101.75,233.875,91.0625,0.69873046875,0.4228515625,0.341796875
1969/12/31/18:00:11.463000,6,1731186133,29444389,RU_myo,0.9147112641454956,0.2819332262837344,-0.1845170259917144,-0.2230928647038426,123.6875,246.875,77.0,0.60400390625,0.63671875,0.4443359375
1969/12/31/18:00:11.492000,7,1731186133,57964661,RU_myo,0.9149922379563088,0.3146411171145869,-0.1583276542764769,-0.1967803999180268,161.25,226.0625,59.375,0.41455078125,0.7958984375,0.55517578125
1969/12/31/18:00:11.501000,8,1731186133,67295198,RU_myo,0.9116518618517244,0.346447239412854,-0.1359298805800609,-0.1743222895988567,163.0625,193.375,43.375,0.263671875,0.71142578125,0.349609375
1969/12/31/18:00:11.523000,9,1731186133,89595444,RU_myo,0.909500608168206,0.3679873274710498,-0.114259790516803,-0.1560085601287118,105.8125,171.375,32.25,0.21142578125,0.556640625,0.2587890625
1969/12/31/18:00:11.544000,10,1731186133,110459937,RU_myo,0.9066269479100924,0.3873947245445912,-0.0950938996124898,-0.1375138355756993,102.875,156.4375,38.625,0.1943359375,0.38671875,0.412109375
1969/12/31/18:00:11.561000,11,1731186133,127015418,RU_myo,0.8984022122146832,0.4149288836629809,-0.0820336010066264,-0.1182284859745798,160.9375,129.875,47.8125,0.1904296875,0.41015625,0.3046875
1969/12/31/18:00:11.583000,12,1731186133,149394767,RU_myo,0.8888193981816743,0.4409916324586319,-0.073122211167535,-0.1008940025542032,153.375,100.875,48.5625,0.08544921875,0.6435546875,0.06689453125
1969/12/31/18:00:11.605000,13,1731186133,170579108,RU_myo,0.881802110517986,0.4586933522906253,-0.0684225213463461,-0.0856960035417216,105.1875,69.5625,54.9375,-0.015625,0.72119140625,0.05126953125
1969/12/31/18:00:11.622000,14,1731186133,188363816,RU_myo,0.873483512129513,0.4763845162581824,-0.0691535755183242,-0.0728157242659848,94.5625,35.9375,56.9375,0.03466796875,0.80029296875,0.13623046875
1969/12/31/18:00:11.643000,15,1731186133,209452006,RU_myo,0.865438309429145,0.4915889797688366,-0.0736712066775497,-0.0626846141324304,77.5,11.625,51.375,0.12353515625,1.087890625,0.201171875
1969/12/31/18:00:11.665000,16,1731186133,230483842,RU_myo,0.8638731455628986,0.4946532870516307,-0.0758704387716161,-0.0573148366907059,-6.625,5.25,34.0625,0.05322265625,1.1982421875,0.21484375
1969/12/31/18:00:11.681000,17,1731186133,247059113,RU_myo,0.8694291118244651,0.4848269752332018,-0.0767861431251879,-0.0560331314697317,-87.1875,-2.1875,19.125,0.03515625,1.1162109375,0.28955078125
1969/12/31/18:00:11.703000,18,1731186133,269249719,RU_myo,0.8766402027493612,0.4709148561628827,-0.0797777987044572,-0.0581090010456337,-91.9375,-22.0,6.5,0.0791015625,0.857421875,0.51416015625
1969/12/31/18:00:11.725000,19,1731186133,290566457,RU_myo,0.8834563328757148,0.4565602715151545,-0.0857576445827262,-0.0608543570455359,-86.0625,-37.125,7.75,0.1416015625,0.6748046875,0.52783203125
1969/12/31/18:00:11.741000,20,1731186133,306857344,RU_myo,0.8883150126901114,0.4457444371084158,-0.0921030200734765,-0.061035798590773,-63.75,-28.6875,14.9375,0.220703125,0.64501953125,0.50341796875
1969/12/31/18:00:11.764000,21,1731186133,329906554,RU_myo,0.8892976233604669,0.4426956528643422,-0.0974137959425741,-0.0606699957186207,-5.6875,-23.4375,10.8125,0.2236328125,0.7275390625,0.7158203125
1969/12/31/18:00:11.785000,22,1731186133,350597284,RU_myo,0.8871373293901504,0.4459491763124012,-0.102728232101529,-0.0596959067114054,28.5,-22.4375,11.8125,0.19189453125,0.73779296875,0.607421875
1969/12/31/18:00:11.801000,23,1731186133,367047602,RU_myo,0.8844239420642603,0.4502688351006245,-0.1082183332836393,-0.0578018960065462,24.625,-21.375,19.125,0.14013671875,0.71337890625,0.37451171875
1969/12/31/18:00:11.823000,24,1731186133,389627350,RU_myo,0.8806991849969521,0.4564327746487773,-0.1140776752899926,-0.0549941067074817,46.1875,-22.6875,23.6875,0.140625,0.70654296875,0.51025390625
1969/12/31/18:00:11.845000,25,1731186133,410518500,RU_myo,0.8751077265561586,0.4660282829222481,-0.1198184046334476,-0.05145538212226,75.375,-16.125,16.375,0.326171875,0.94140625,0.75048828125
1969/12/31/18:00:11.861000,26,1731186133,426833868,RU_myo,0.8709618017917322,0.4734164787088566,-0.1220164441643894,-0.0491361868696015,56.6875,1.5625,-2.1875,0.45654296875,1.15966796875,0.833984375
1969/12/31/18:00:11.883000,27,1731186133,449503667,RU_myo,0.8705851770274792,0.4745705497713419,-0.1209163034208396,-0.0473654979578857,15.125,14.0,-3.125,0.32177734375,0.9345703125,0.70263671875
1969/12/31/18:00:11.905000,28,1731186133,470581880,RU_myo,0.8707405758372392,0.4747385531236539,-0.1198138055774919,-0.0455939443537374,-1.375,11.9375,4.125,0.19482421875,0.84716796875,0.4814453125
1969/12/31/18:00:11.921000,29,1731186133,487034253,RU_myo,0.8711835480915487,0.4741367478158166,-0.1192055958398931,-0.0449843953579115,-11.3125,3.875,5.5,0.11474609375,0.91357421875,0.443359375
1969/12/31/18:00:11.943000,30,1731186133,509560828,RU_myo,0.8743235044729518,0.4684137512793516,-0.1185378557446573,-0.0457792954729624,-35.875,0.1875,1.375,0.10888671875,0.7490234375,0.5166015625
1969/12/31/18:00:11.965000,31,1731186133,530495673,RU_myo,0.877095899670443,0.4635729546274888,-0.1176175225236564,-0.0443736060584837,-20.625,8.25,5.875,0.15966796875,0.58447265625,0.564453125
1969/12/31/18:00:11.981000,32,1731186133,546976679,RU_myo,0.8762339135459796,0.4657662994057794,-0.1167620142528182,-0.0405279547641773,23.5,15.375,11.875,0.18359375,0.60107421875,0.52685546875
1969/12/31/18:00:12.004000,33,1731186133,569562499,RU_myo,0.87277105430507,0.4727942224384273,-0.1159096602647267,-0.0360729906353099,50.9375,15.4375,13.3125,0.166015625,0.732421875,0.525390625
1969/12/31/18:00:12.025000,34,1731186133,590614126,RU_myo,0.8687723065683687,0.4805013417625376,-0.1151811524270717,-0.0329612200904179,44.75,10.9375,9.75,0.150390625,0.94677734375,0.4658203125
1969/12/31/18:00:12.041000,35,1731186133,606935928,RU_myo,0.866849221040078,0.4842685339904224,-0.1143835685276092,-0.031189969859983,17.1875,8.5,6.0625,0.158203125,0.97802734375,0.44970703125
1969/12/31/18:00:12.063000,36,1731186133,629477700,RU_myo,0.8673357440501692,0.4837182105276278,-0.1133457056088081,-0.029969166103352,-5.1875,9.25,2.875,0.185546875,0.89501953125,0.50634765625
1969/12/31/18:00:12.085000,37,1731186133,650562476,RU_myo,0.8677082988440642,0.4833555162173709,-0.1124309711923724,-0.0284434487381354,0.75,9.875,2.875,0.19775390625,0.8017578125,0.53271484375
1969/12/31/18:00:12.100000,38,1731186133,666264050,RU_myo,0.8672441140363004,0.4843455831136011,-0.1120678627090827,-0.0271624177045434,8.4375,5.6875,3.5625,0.18408203125,0.8125,0.5087890625
1969/12/31/18:00:12.124000,39,1731186133,689598256,RU_myo,0.8662001490359292,0.4863563376448653,-0.1115787381042688,-0.0265518331922083,11.3125,3.4375,1.1875,0.15380859375,0.87255859375,0.4873046875
1969/12/31/18:00:12.145000,40,1731186133,710579925,RU_myo,0.8655377559507362,0.487704278564625,-0.1108474305223227,-0.0264910709508194,10.125,2.9375,-2.4375,0.15478515625,0.82568359375,0.51171875
1969/12/31/18:00:12.161000,41,1731186133,727044525,RU_myo,0.8643903321161189,0.4899351218681038,-0.1100477170459936,-0.0261233626709291,17.5625,4.8125,-3.25,0.17333984375,0.77490234375,0.50244140625
1969/12/31/18:00:12.183000,42,1731186133,749398191,RU_myo,0.8619747804891399,0.4941614376745557,-0.1101120594818303,-0.0260631094228057,25.4375,0.0625,-3.8125,0.17626953125,0.837890625,0.4384765625
1969/12/31/18:00:12.205000,43,1731186133,770510016,RU_myo,0.8597003606152943,0.4979975322868432,-0.1105372632640609,-0.0263678065875617,22.6875,-2.6875,-4.375,0.19091796875,0.88427734375,0.451171875
1969/12/31/18:00:12.220000,44,1731186133,786227229,RU_myo,0.858265749964854,0.5003956061597236,-0.1106632390787483,-0.0271622401489481,17.6875,-3.6875,-5.8125,0.17333984375,0.88330078125,0.52294921875
1969/12/31/18:00:12.244000,45,1731186133,809562129,RU_myo,0.8574917619002476,0.5018362350589961,-0.1099864869346036,-0.0277712827720558,14.375,1.5625,-8.1875,0.1865234375,0.80517578125,0.5302734375
1969/12/31/18:00:12.265000,46,1731186133,830618013,RU_myo,0.8562235286424404,0.5042245915394354,-0.1088285252045531,-0.028198978488224,19.6875,5.9375,-12.4375,0.22900390625,0.8046875,0.5078125
1969/12/31/18:00:12.280000,47,1731186133,846347012,RU_myo,0.8543950521517926,0.5077052467351487,-0.1069367146285141,-0.0284432129091824,28.0,8.1875,-11.5625,0.19189453125,0.86865234375,0.556640625
1969/12/31/18:00:12.303000,48,1731186133,869488809,RU_myo,0.8531735108283105,0.5103903918691037,-0.1041899544272375,-0.027222448549823,28.4375,14.0,-2.375,0.11376953125,0.80517578125,0.60595703125
1969/12/31/18:00:12.326000,49,1731186133,892042291,RU_myo,0.8517909036519901,0.5134550398796518,-0.1010795941560512,-0.0244763993095269,26.1875,20.3125,4.6875,0.09521484375,0.80517578125,0.513671875
1969/12/31/18:00:12.347000,50,1731186133,912933068,RU_myo,0.8495116113397325,0.5181422667526218,-0.0964993431188473,-0.0233771337220231,25.75,22.75,-5.6875,0.0654296875,0.98486328125,0.43310546875
1969/12/31/18:00:12.364000,51,1731186133,929515728,RU_myo,0.8475491299499771,0.5224091173298181,-0.0902115522156176,-0.0247196743216002,19.4375,22.125,-18.0,-0.001953125,1.07275390625,0.43896484375
1969/12/31/18:00:12.386000,52,1731186133,952303276,RU_myo,0.8457541502221011,0.5260937514985775,-0.0846608693965108,-0.0275285162925929,18.1875,13.9375,-23.125,-0.01708984375,1.01953125,0.44677734375
1969/12/31/18:00:12.393000,53,1731186133,958797118,RU_myo,0.8441341450369685,0.5290029381804342,-0.0811784824945168,-0.0316779191087625,14.4375,0.9375,-25.5625,0.00439453125,1.0078125,0.4521484375
1969/12/31/18:00:12.409000,54,1731186133,975270640,RU_myo,0.8425567348659947,0.5315114493779398,-0.0785548042431567,-0.0377209549512594,7.875,-5.9375,-37.375,0.09423828125,1.11572265625,0.4326171875
1969/12/31/18:00:12.429000,55,1731186133,994821930,RU_myo,0.8422675321683712,0.5319488037428332,-0.0742225754849437,-0.0459008032604257,-4.375,-2.125,-56.1875,0.1494140625,1.16015625,0.4970703125
1969/12/31/18:00:12.451000,56,1731186134,17179515,RU_myo,0.8441617827065004,0.5290202581863513,-0.0675085272359645,-0.0545073370901594,-12.625,7.375,-65.0625,0.13720703125,1.00732421875,0.6826171875
1969/12/31/18:00:12.469000,57,1731186134,35211176,RU_myo,0.8451088061832609,0.5276589361154334,-0.0590221158153411,-0.0623180767812443,-2.375,18.9375,-67.5,0.10888671875,0.9384765625,0.654296875
1969/12/31/18:00:12.489000,58,1731186134,54850882,RU_myo,0.8451664687686578,0.527778901960178,-0.0479743514445125,-0.0695811204157051,2.375,32.125,-70.1875,0.0341796875,0.923828125,0.583984375
1969/12/31/18:00:12.511000,59,1731186134,77358961,RU_myo,0.8445737059303294,0.528766496673733,-0.0348523224749742,-0.0767239393188136,5.8125,42.5,-75.5625,-0.01318359375,0.93603515625,0.556640625
1969/12/31/18:00:12.530000,60,1731186134,95548299,RU_myo,0.8435515946185038,0.5300580352870541,-0.0208751552358558,-0.0838058132714331,10.6875,47.625,-78.9375,-0.025390625,0.828125,0.54541015625
1969/12/31/18:00:12.549000,61,1731186134,114871102,RU_myo,0.8421302058692037,0.5317560595442852,-0.0075075752208387,-0.0894194934839735,12.0,50.8125,-72.9375,-0.00732421875,0.81787109375,0.5029296875
1969/12/31/18:00:12.571000,62,1731186134,137416402,RU_myo,0.841260755720843,0.5325400924083549,0.0053711780093908,-0.0930190373444507,3.5,55.5625,-64.375,0.013671875,0.8291015625,0.4619140625
1969/12/31/18:00:12.589000,63,1731186134,155428033,RU_myo,0.8416409049132282,0.5310840172347522,0.0195929168523566,-0.0959503591648121,-11.1875,61.875,-62.5,-0.04052734375,0.80419921875,0.466796875
1969/12/31/18:00:12.609000,64,1731186134,174892301,RU_myo,0.8425077476244458,0.5286502645928657,0.0340592134445005,-0.0977218650979307,-11.375,65.3125,-53.25,-0.10546875,0.640625,0.486328125
1969/12/31/18:00:12.631000,65,1731186134,197349298,RU_myo,0.8412804867566279,0.5296227804967902,0.0468768347840883,-0.0977211100121425,7.75,63.25,-38.0,-0.14453125,0.5947265625,0.40087890625
1969/12/31/18:00:12.649000,66,1731186134,215350831,RU_myo,0.8377828785679906,0.5343108931213894,0.0579233536180258,-0.0963151232974128,24.4375,60.4375,-27.625,-0.14990234375,0.6708984375,0.283203125
1969/12/31/18:00:12.669000,67,1731186134,234826113,RU_myo,0.8336547908326959,0.5398186389020619,0.0678740758094858,-0.0949138380249555,30.75,55.625,-23.6875,-0.18603515625,0.71240234375,0.2900390625
1969/12/31/18:00:12.691000,68,1731186134,257425338,RU_myo,0.8292648846262283,0.5459255945897973,0.0758704733983808,-0.0923507853996381,40.375,51.3125,-10.9375,-0.18017578125,0.61669921875,0.32080078125
1969/12/31/18:00:12.708000,69,1731186134,273846733,RU_myo,0.8237814910833874,0.5538673125437654,0.0822194478726528,-0.0886285362368908,52.125,48.0,0.1875,-0.20361328125,0.66748046875,0.3115234375
1969/12/31/18:00:12.729000,70,1731186134,294919337,RU_myo,0.8177666700055652,0.5624511019630754,0.088441849890884,-0.0841692967560586,53.3125,50.125,3.3125,-0.22998046875,0.8125,0.30078125
1969/12/31/18:00:12.751000,71,1731186134,317395544,RU_myo,0.8126523339387931,0.5697844026827875,0.0934483042857362,-0.0787993212494353,41.8125,46.125,9.6875,-0.20849609375,0.818359375,0.23681640625
1969/12/31/18:00:12.768000,72,1731186134,333646436,RU_myo,0.8088540597046406,0.5754509564515056,0.0964374746704899,-0.0728774333902309,24.875,35.75,17.8125,-0.1943359375,0.8076171875,0.13818359375
1969/12/31/18:00:12.789000,73,1731186134,354781923,RU_myo,0.806262140182372,0.57968593726338,0.0972348844962161,-0.0667154606116536,16.0625,26.0,24.5,-0.1708984375,0.85546875,0.1591796875
1969/12/31/18:00:12.811000,74,1731186134,377297974,RU_myo,0.8048284503228816,0.5825331965631414,0.096620918918635,-0.0597548197228955,16.3125,24.1875,29.75,-0.11767578125,0.81396484375,0.2939453125
1969/12/31/18:00:12.828000,75,1731186134,393765503,RU_myo,0.8033178899831849,0.5854741433567897,0.0958292749239115,-0.0521262425382296,15.625,25.625,33.8125,-0.1015625,0.7763671875,0.2666015625
1969/12/31/18:00:12.849000,76,1731186134,414880340,RU_myo,0.8016565263305588,0.5886383082025209,0.0943627980590105,-0.0441295620935734,9.1875,21.4375,40.0,-0.14990234375,0.90087890625,0.17333984375
1969/12/31/18:00:12.880000,77,1731186134,445637557,RU_myo,0.8003700004069628,0.5913204121057466,0.0917376733479497,-0.0364997529355116,6.8125,13.8125,44.3125,-0.181640625,0.9443359375,0.18701171875
1969/12/31/18:00:12.888000,78,1731186134,453820855,RU_myo,0.7987218248377106,0.5944941597065032,0.0877702876445535,-0.0302740352376206,14.0625,4.375,41.125,-0.13671875,0.91259765625,0.21337890625
1969/12/31/18:00:12.909000,79,1731186134,474795078,RU_myo,0.7973089795823736,0.5971730120365876,0.0839850842766092,-0.0250856610738999,10.4375,1.625,34.8125,-0.119140625,0.93359375,0.19921875
1969/12/31/18:00:12.940000,80,1731186134,505585947,RU_myo,0.7957723247740631,0.6000185589114858,0.0795345048079009,-0.0199599256118062,11.0,-2.125,37.4375,-0.11572265625,0.935546875,0.18212890625
1969/12/31/18:00:12.954000,81,1731186134,519825743,RU_myo,0.7937850182712642,0.6034719319990764,0.0741598459976613,-0.0150761168406768,15.25,-6.5625,39.4375,-0.10400390625,1.02734375,0.19287109375
1969/12/31/18:00:12.969000,82,1731186134,534788950,RU_myo,0.792134454240344,0.6062166281025656,0.0699480724733729,-0.0114749019415306,13.4375,-6.0,30.8125,-0.1298828125,1.09228515625,0.23974609375
1969/12/31/18:00:12.991000,83,1731186134,557233887,RU_myo,0.791124752054078,0.6079471129124772,0.0665323647665261,-0.0097662186813249,4.375,-9.9375,20.125,-0.1240234375,1.0400390625,0.17822265625
1969/12/31/18:00:13.008000,84,1731186134,573692727,RU_myo,0.7904011319768691,0.6092967873498423,0.0627486573227447,-0.009278011588577,5.5625,-15.4375,16.1875,-0.1171875,0.9794921875,0.20703125
1969/12/31/18:00:13.029000,85,1731186134,594667241,RU_myo,0.7877783259558796,0.6132047933172762,0.0575604340133577,-0.008484517845023,33.125,-18.75,21.625,-0.0751953125,0.8876953125,0.31396484375
1969/12/31/18:00:13.051000,86,1731186134,617314000,RU_myo,0.7835665270330683,0.6190035172269491,0.0529824527120591,-0.0071416439715563,43.5625,-12.8125,19.625,-0.0302734375,0.98291015625,0.27294921875
1969/12/31/18:00:13.068000,87,1731186134,633817644,RU_myo,0.7804489519954475,0.6232116220767652,0.0496860196249252,-0.0061649729510042,26.875,-10.25,15.0,-0.06201171875,1.04541015625,0.19482421875
1969/12/31/18:00:13.089000,88,1731186134,654844682,RU_myo,0.7791005815099117,0.6252215023821706,0.0455350230183636,-0.00518830691228,10.125,-14.4375,17.8125,-0.052734375,1.0029296875,0.16650390625
1969/12/31/18:00:13.111000,89,1731186134,677251495,RU_myo,0.7795198961172233,0.6250320050301751,0.0408956487666227,-0.0033571054957675,-4.0,-13.5625,21.4375,-0.01611328125,0.95361328125,0.1904296875
1969/12/31/18:00:13.128000,90,1731186134,693796304,RU_myo,0.7810867118035791,0.6233068297990272,0.0372934266556213,-0.0011596973919096,-16.375,-8.3125,20.625,-0.04150390625,1.03125,0.19677734375
1969/12/31/18:00:13.156000,91,1731186134,722273949,RU_myo,0.7838686034079926,0.6199166435299465,0.0354028803906428,6.103944894938426,-29.75,-5.1875,12.1875,-0.07080078125,1.03662109375,0.1826171875
1969/12/31/18:00:13.171000,92,1731186134,737225743,RU_myo,0.7865696711747848,0.6165846836507858,0.0336307820918217,0.0006713949237931,-25.625,-6.5,8.25,-0.048828125,0.9208984375,0.21044921875
1969/12/31/18:00:13.188000,93,1731186134,753746793,RU_myo,0.7881249901287989,0.6147155185553852,0.0313125867360652,0.0018311454231617,-11.375,-6.125,11.3125,-0.01953125,0.904296875,0.26513671875
1969/12/31/18:00:13.216000,94,1731186134,782459677,RU_myo,0.789043248266822,0.6136189196895151,0.0294815416502572,0.0036623033105909,-6.3125,-1.0,11.875,-0.00439453125,1.0087890625,0.2919921875
1969/12/31/18:00:13.231000,95,1731186134,797225644,RU_myo,0.7902472106531706,0.6120799434950177,0.0289926179856535,0.0051881526921695,-10.8125,3.4375,6.5,-0.01611328125,1.0341796875,0.27392578125
1969/12/31/18:00:13.248000,96,1731186134,813784069,RU_myo,0.7922877848060652,0.6094145796227854,0.0291766996253697,0.0065311858994028,-16.75,6.0625,1.5625,0.00537109375,1.0205078125,0.30859375
1969/12/31/18:00:13.269000,97,1731186134,834776664,RU_myo,0.7938097198514558,0.6073971950974115,0.029542783883745,0.0078740064483535,-11.6875,6.875,2.25,-0.0048828125,0.9482421875,0.30224609375
1969/12/31/18:00:13.287000,98,1731186134,852883205,RU_myo,0.795527682049389,0.6051455106144128,0.0292989555270242,0.0087286471674259,-18.0625,1.0,6.5625,-0.0693359375,0.95751953125,0.23974609375
1969/12/31/18:00:13.309000,99,1731186134,875352236,RU_myo,0.7968989516696503,0.6034116908858888,0.0279549417788526,0.0080568827834247,-19.875,-8.875,1.5,-0.041015625,1.0146484375,0.17529296875
1969/12/31/18:00:13.329000,100,1731186134,894865267,RU_myo,0.7989362952406629,0.6008044888115093,0.0260635493977968,0.0074467283993705,-21.5625,-9.625,-2.125,0.0478515625,0.94287109375,0.2373046875
1969/12/31/18:00:13.351000,101,1731186134,917434949,RU_myo,0.8011786105599954,0.5978626002159954,0.0244760492788784,0.0086062916417003,-18.375,-0.9375,1.625,0.09423828125,0.9892578125,0.33642578125
1969/12/31/18:00:13.369000,102,1731186134,935251754,RU_myo,0.8034200353331277,0.5947981648804473,0.0250248586558218,0.0102540884248245,-16.0625,7.875,5.5625,-0.0361328125,0.94091796875,0.37353515625
1969/12/31/18:00:13.389000,103,1731186134,954858398,RU_myo,0.8048449972844263,0.5927995308377331,0.0264904238450963,0.0105595468322619,-12.625,5.875,2.9375,-0.1298828125,0.88330078125,0.296875
1969/12/31/18:00:13.411000,104,1731186134,977235384,RU_myo,0.8054556037763978,0.591945168643794,0.0272839235289519,0.0098881333594859,-7.375,-0.4375,-1.4375,-0.10107421875,0.8837890625,0.25048828125
1969/12/31/18:00:13.437000,105,1731186135,2932251,RU_myo,0.805522558270364,0.5918274399476736,0.0278334687104103,0.0099492442978002,-2.8125,2.5625,-1.4375,-0.03564453125,0.94873046875,0.26708984375
1969/12/31/18:00:13.452000,106,1731186135,17835442,RU_myo,0.8055969423811472,0.5916541265722427,0.029176794852113,0.0103766843616301,2.3125,7.6875,-2.25,-0.04052734375,0.95556640625,0.34814453125
1969/12/31/18:00:13.467000,107,1731186135,32667019,RU_myo,0.805754055265526,0.5913908826200804,0.0300303761223118,0.0107425735722091,1.4375,4.625,0.1875,-0.0546875,0.86865234375,0.31640625
1969/12/31/18:00:13.489000,108,1731186135,55153551,RU_myo,0.8054450395910376,0.5918153306967794,0.029847122185512,0.0110477078028173,-2.0625,-0.3125,2.9375,-0.04638671875,0.927734375,0.220703125
1969/12/31/18:00:13.512000,109,1731186135,77804541,RU_myo,0.805148589173188,0.5921879775724562,0.0303357477688632,0.0113530162676228,-0.8125,3.0,0.6875,-0.05615234375,1.0478515625,0.27392578125
1969/12/31/18:00:13.534000,110,1731186135,100223268,RU_myo,0.8057049722772711,0.5913386190471366,0.0321671606356153,0.0111089624965502,-3.6875,6.75,-4.5,-0.08203125,0.9931640625,0.34033203125
1969/12/31/18:00:13.549000,111,1731186135,115269822,RU_myo,0.8067379969560435,0.5898703187246126,0.0335098101179441,0.0101933302180267,-11.125,2.9375,-8.6875,-0.04736328125,0.89794921875,0.26806640625
1969/12/31/18:00:13.569000,112,1731186135,134784623,RU_myo,0.8074043001858628,0.5889510199949646,0.0336316729212587,0.0101932656585303,-9.9375,1.4375,-5.125,0.0244140625,0.93701171875,0.24560546875
1969/12/31/18:00:13.587000,113,1731186135,152775973,RU_myo,0.8076670101534372,0.5885983206551991,0.0332662122531456,0.0109259669602074,-3.5,2.8125,-1.625,0.0498046875,0.94287109375,0.29296875
1969/12/31/18:00:13.617000,114,1731186135,182652527,RU_myo,0.8077607930346384,0.5884556298660231,0.0332650470155567,0.0116580256513235,-0.8125,3.3125,0.3125,0.00439453125,0.90869140625,0.29541015625
1969/12/31/18:00:13.628000,115,1731186135,194635538,RU_myo,0.8078333204537969,0.5883419248850886,0.0332044825331972,0.0125127186016644,-1.1875,3.0625,2.875,-0.0166015625,0.92138671875,0.29296875
1969/12/31/18:00:13.647000,116,1731186135,212569390,RU_myo,0.807789865984501,0.5883547316173949,0.0334493612331499,0.0139779265007141,0.0,6.4375,4.3125,-0.015625,0.9189453125,0.29443359375
1969/12/31/18:00:13.669000,117,1731186135,235343377,RU_myo,0.8074658130127527,0.588707216456875,0.034303105821541,0.0156866515945481,0.3125,9.375,6.0625,-0.05078125,0.91259765625,0.2587890625
1969/12/31/18:00:13.689000,118,1731186135,254794605,RU_myo,0.80730484019364,0.588845440295482,0.0351585957924948,0.0168468271505704,-6.6875,6.6875,5.5,-0.080078125,0.93212890625,0.18505859375
1969/12/31/18:00:13.714000,119,1731186135,280313169,RU_myo,0.8080832770061772,0.5877968092431065,0.0347917114505265,0.0169075510031506,-21.1875,-2.75,2.25,-0.05517578125,1.02001953125,0.1259765625
1969/12/31/18:00:13.729000,120,1731186135,295159562,RU_myo,0.8102986893316096,0.5848800031017314,0.0331444209647505,0.0152598623226291,-32.625,-12.625,-6.25,0.0068359375,1.1005859375,0.18701171875
1969/12/31/18:00:13.749000,121,1731186135,314690032,RU_myo,0.8141623439216732,0.5796611275376063,0.0314336612279527,0.0120241383726343,-44.375,-17.8125,-15.5625,0.033203125,1.06494140625,0.25146484375
1969/12/31/18:00:13.767000,122,1731186135,332830984,RU_myo,0.8195348912729147,0.5722156554467547,0.0296636595783597,0.0072022877165564,-66.4375,-23.875,-22.1875,0.009765625,1.025390625,0.1552734375
1969/12/31/18:00:13.789000,123,1731186135,355085495,RU_myo,0.8264423069221489,0.5623958209734624,0.0264901005320688,-0.0015259274500039,-97.75,-45.5,-32.75,-0.05078125,1.04296875,-0.05126953125
1969/12/31/18:00:13.809000,124,1731186135,374614286,RU_myo,0.8385503128718094,0.5442825112736879,0.0197765541833211,-0.0140999506677382,-131.375,-75.125,-40.3125,-0.06787109375,1.01708984375,-0.09814453125
1969/12/31/18:00:13.832000,125,1731186135,397955726,RU_myo,0.8528135215643916,0.5212587656856501,0.0110477560408785,-0.029603103203459,-158.875,-93.375,-50.3125,0.0439453125,0.91845703125,0.06884765625
1969/12/31/18:00:13.849000,126,1731186135,414471340,RU_myo,0.8671580685748805,0.4957456065999282,0.0008545233307558,-0.0476701943800226,-168.5625,-108.0,-59.3125,0.08984375,0.7314453125,0.16943359375
1969/12/31/18:00:13.869000,127,1731186135,435427696,RU_myo,0.8806911285362007,0.4688799812471477,-0.0111696220474131,-0.0664073704239646,-172.0,-119.375,-57.625,0.1044921875,0.60888671875,0.18896484375
1969/12/31/18:00:13.885000,128,1731186135,451376118,RU_myo,0.891584115268118,0.4439303943551052,-0.0252697900815363,-0.0858196252527537,-152.875,-130.875,-56.25,0.125,0.580078125,0.30615234375
1969/12/31/18:00:13.908000,129,1731186135,474348813,RU_myo,0.8990120772043558,0.4225582599284239,-0.0427258099017617,-0.1067534878831161,-123.9375,-150.375,-57.875,0.12255859375,0.55078125,0.3525390625
1969/12/31/18:00:13.930000,130,1731186135,495627965,RU_myo,0.9038928464845573,0.4028423787425267,-0.0629898992215587,-0.1293368182659718,-107.0,-168.125,-61.8125,0.17822265625,0.41064453125,0.35009765625
1969/12/31/18:00:13.946000,131,1731186135,511885499,RU_myo,0.9056431487447866,0.3867202446722582,-0.0866702568552093,-0.1508184540064946,-76.375,-180.5625,-53.0,0.29736328125,0.31884765625,0.38720703125
1969/12/31/18:00:13.969000,132,1731186135,534538126,RU_myo,0.9035227265712004,0.3765339255703394,-0.1146264730460524,-0.1694982511442425,-31.8125,-192.25,-36.5625,0.404296875,0.29638671875,0.3818359375
1969/12/31/18:00:13.989000,133,1731186135,555577215,RU_myo,0.8979147850465167,0.3717151139238179,-0.1464276778823053,-0.1847588916005578,8.625,-201.3125,-17.625,0.4736328125,0.37451171875,0.41748046875
1969/12/31/18:00:14.005000,134,1731186135,571217186,RU_myo,0.890184653999398,0.3687332346962673,-0.1807348299843813,-0.197337286504392,28.6875,-208.5,-2.4375,0.5234375,0.43212890625,0.50341796875
1969/12/31/18:00:14.029000,135,1731186135,594454142,RU_myo,0.8808567941455034,0.3652943398670203,-0.2182610792588913,-0.2073968532778839,34.6875,-222.3125,16.1875,0.5185546875,0.43115234375,0.41162109375
1969/12/31/18:00:14.049000,136,1731186135,615577197,RU_myo,0.8704969520506821,0.357549512348401,-0.2619669694433829,-0.213931553564552,26.4375,-252.375,50.5,0.5986328125,0.45166015625,0.35546875
1969/12/31/18:00:14.065000,137,1731186135,631234438,RU_myo,0.8594598083843908,0.3439426191496372,-0.3103113177917934,-0.2161925034654862,10.5625,-275.4375,89.6875,0.6962890625,0.5498046875,0.41845703125
1969/12/31/18:00:14.089000,138,1731186135,654471767,RU_myo,0.8470396648321276,0.3243994681209654,-0.3590671817414185,-0.2199080496029799,-18.4375,-289.5,91.8125,0.8486328125,0.599609375,0.38818359375
1969/12/31/18:00:14.110000,139,1731186135,675749816,RU_myo,0.8239118953073488,0.2990106211653235,-0.423461051162485,-0.2290034396024277,-20.0625,-403.6875,92.3125,1.0048828125,0.5830078125,0.18017578125
