time,.header.seq,.header.stamp.secs,.header.stamp.nsecs,.header.frame_id,.orientation.x,.orientation.y,.orientation.z,.orientation.w,.angular_velocity.x,.angular_velocity.y,.angular_velocity.z,.linear_acceleration.x,.linear_acceleration.y,.linear_acceleration.z
1969/12/31/18:00:06.616000,1,1730344604,589985009,RL_myo,-0.204298644388052,0.3064174469160506,0.377955544084499,0.849423344877243,-4.875,0.5,-7.0,0.5966796875,0.45361328125,0.5322265625
1969/12/31/18:00:06.631000,2,1730344604,604453194,RL_myo,-0.2034357893082551,0.3059776813088158,0.3772076741449195,0.850121114157029,-3.625,-0.5,-5.0,0.5927734375,0.447265625,0.5302734375
1969/12/31/18:00:06.654000,3,1730344604,627597505,RL_myo,-0.2031905182045685,0.305853916107868,0.3769004055011145,0.8503605586140126,0.4375,-1.5,-2.25,0.61669921875,0.4501953125,0.53076171875
1969/12/31/18:00:06.676000,4,1730344604,650138121,RL_myo,-0.2033140818526653,0.305978232460946,0.3772693905527842,0.8501226454650022,4.875,-2.4375,-1.5625,0.6376953125,0.44384765625,0.52734375
1969/12/31/18:00:06.691000,5,1730344604,664587070,RL_myo,-0.2031352582183561,0.3061678050550704,0.3786812325681134,0.8494691672550668,9.3125,-4.5625,-3.875,0.6435546875,0.46337890625,0.513671875
1969/12/31/18:00:06.714000,6,1730344604,687770579,RL_myo,-0.2025768374683955,0.3063371941108397,0.3798849763191604,0.8490038593508229,6.6875,-4.4375,-4.9375,0.642578125,0.474609375,0.50146484375
1969/12/31/18:00:06.736000,7,1730344604,710201274,RL_myo,-0.2021018865494707,0.306418444723148,0.3807645932635453,0.8486936365399701,4.125,-2.75,-3.8125,0.64501953125,0.48974609375,0.48974609375
1969/12/31/18:00:06.751000,8,1730344604,724485431,RL_myo,-0.2016048913916479,0.3066494018624399,0.3816027190374152,0.8483519180903767,2.8125,-3.5625,-2.1875,0.62744140625,0.50830078125,0.48095703125
1969/12/31/18:00:06.774000,9,1730344604,747675433,RL_myo,-0.2011803901172265,0.3071419062712026,0.3822183261268423,0.847997317930409,1.5625,-4.5,-0.5625,0.625,0.5087890625,0.478515625
1969/12/31/18:00:06.797000,10,1730344604,770199177,RL_myo,-0.2013017047527555,0.3075680079591071,0.3827662190735386,0.8475668502719115,4.3125,-4.8125,0.875,0.62890625,0.4853515625,0.51171875
1969/12/31/18:00:06.811000,11,1730344604,784602914,RL_myo,-0.201605374337656,0.3084202108774375,0.3842282262959566,0.8465228388401307,12.25,-8.75,-0.8125,0.64111328125,0.44189453125,0.5263671875
1969/12/31/18:00:06.834000,12,1730344604,807690750,RL_myo,-0.201181314655042,0.3088523823284323,0.3872862383150006,0.8450713899875781,20.5625,-10.5625,-8.0625,0.67626953125,0.458984375,0.53857421875
1969/12/31/18:00:06.856000,13,1730344604,830124086,RL_myo,-0.1999016592933517,0.3075738812760913,0.393943605825738,0.8427609801109335,40.6875,-9.75,-22.1875,0.732421875,0.50146484375,0.572265625
1969/12/31/18:00:06.877000,14,1730344604,851134659,RL_myo,-0.1975730644145627,0.3029819869489927,0.4062546545391813,0.8391209420980565,74.75,-6.8125,-43.8125,0.7939453125,0.568359375,0.64111328125
1969/12/31/18:00:06.894000,15,1730344604,867462008,RL_myo,-0.1953201165541408,0.2942619630960978,0.425797854088027,0.8330402971034108,116.4375,4.375,-62.25,1.09375,0.6572265625,0.75634765625
1969/12/31/18:00:06.916000,16,1730344604,890170596,RL_myo,-0.1936659554726733,0.2777119752286996,0.4517855034379856,0.8253844046192759,160.1875,34.1875,-87.375,1.28857421875,0.93994140625,0.7802734375
1969/12/31/18:00:06.937000,17,1730344604,911183706,RL_myo,-0.1848849533277177,0.2520270624926202,0.4760375539791583,0.822002531021583,135.5625,67.125,-140.75,1.08544921875,1.5048828125,0.70166015625
1969/12/31/18:00:06.954000,18,1730344604,927638316,RL_myo,-0.1624249817913732,0.2177263848364631,0.4907541727180162,0.8278729906187131,53.625,91.8125,-220.3125,0.7001953125,1.7265625,0.7119140625
1969/12/31/18:00:06.984000,19,1730344604,957559795,RL_myo,-0.1321443556974717,0.1808516055111356,0.4939086033736448,0.8401695409587521,-27.375,101.625,-256.5,0.369140625,1.51416015625,0.5283203125
1969/12/31/18:00:06.997000,20,1730344604,971163587,RL_myo,-0.1023008121390708,0.1424642574776798,0.4826327694413085,0.8580816330853567,-112.8125,127.5625,-250.25,0.2548828125,1.29296875,0.38330078125
1969/12/31/18:00:07.014000,21,1730344604,987626229,RL_myo,-0.0767863937323694,0.102544627559921,0.4670053246791406,0.8749254115737553,-124.125,148.9375,-231.4375,0.181640625,0.9384765625,0.41357421875
1969/12/31/18:00:07.036000,22,1730344605,10060615,RL_myo,-0.0527354476543984,0.0592053058157019,0.4661960060003415,0.8811214378922402,-13.4375,155.9375,-238.6875,0.02734375,0.435546875,0.470703125
1969/12/31/18:00:07.057000,23,1730344605,31108513,RL_myo,-0.0278939959775612,0.0089114297871421,0.4925701259057319,0.8697799621011996,170.9375,174.0,-262.4375,-0.19287109375,0.474609375,0.3056640625
1969/12/31/18:00:07.073000,24,1730344605,46884278,RL_myo,-0.0027467252776393,-0.0443138344792479,0.5346348157076204,0.8439160819698093,287.125,182.5,-266.5,-0.578125,0.7744140625,0.146484375
1969/12/31/18:00:07.097000,25,1730344605,70633357,RL_myo,0.0217302611315399,-0.0975420148544969,0.5732882374927629,0.8132367108300766,285.5625,185.1875,-261.4375,-0.87744140625,1.0517578125,0.1533203125
1969/12/31/18:00:07.117000,26,1730344605,91028549,RL_myo,0.0419938712906025,-0.1491759032474311,0.5983516282874661,0.7861032970227764,211.9375,190.0,-244.9375,-0.9033203125,1.099609375,0.3193359375
1969/12/31/18:00:07.133000,27,1730344605,106802405,RL_myo,0.0501732000033137,-0.1995941168015036,0.6132483460259043,0.7626082248678858,146.8125,223.25,-195.4375,-0.85107421875,0.92138671875,0.42236328125
1969/12/31/18:00:07.179000,28,1730344605,153008315,RL_myo,0.0476097710690488,-0.2470214660467187,0.6244814971890239,0.7394163676031508,120.6875,247.4375,-139.5,-0.958984375,0.61181640625,0.4462890625
1969/12/31/18:00:07.182000,29,1730344605,155497948,RL_myo,0.0390639418108239,-0.2861433737642854,0.6365591392891922,0.715114284774396,122.1875,236.8125,-81.8125,-0.98681640625,0.44384765625,0.419921875
1969/12/31/18:00:07.193000,30,1730344605,166815002,RL_myo,0.0272220318866086,-0.3139689058850112,0.6510704352790465,0.6904996563524752,130.1875,204.625,-24.5625,-0.86328125,0.3486328125,0.38525390625
1969/12/31/18:00:07.216000,31,1730344605,190049172,RL_myo,0.0132447788286516,-0.3311194707162903,0.6672438808977854,0.6670607733563755,128.6875,168.0625,25.75,-0.751953125,0.30712890625,0.28173828125
1969/12/31/18:00:07.237000,32,1730344605,211178924,RL_myo,-0.0018921353299023,-0.3383870409347937,0.6831829273418374,0.6471102828266023,111.6875,127.75,66.25,-0.673828125,0.34912109375,0.1650390625
1969/12/31/18:00:07.253000,33,1730344605,226917819,RL_myo,-0.012024185295661,-0.3383862095388062,0.6927639751561058,0.636732492407797,70.1875,72.5625,87.8125,-0.7255859375,0.47119140625,0.11572265625
1969/12/31/18:00:07.284000,34,1730344605,257625518,RL_myo,-0.0217902512110935,-0.3296614756053679,0.7023541195687777,0.6305134314022312,56.625,27.6875,99.4375,-0.4306640625,0.6357421875,0.12109375
1969/12/31/18:00:07.299000,35,1730344605,272607110,RL_myo,-0.0275889767931631,-0.3191043598996838,0.7163367956738121,0.6198974520162948,90.875,8.5625,94.8125,-0.22900390625,0.4404296875,0.0498046875
1969/12/31/18:00:07.313000,36,1730344605,286792558,RL_myo,-0.0346692919495487,-0.3045160167892581,0.7297031430578435,0.6112293830682763,69.875,-8.125,111.5625,-0.140625,0.22802734375,0.06005859375
1969/12/31/18:00:07.336000,37,1730344605,309975868,RL_myo,-0.043457164324238,-0.282105356048635,0.7429221968463838,0.6054706040680354,50.5,-34.25,149.1875,-0.06640625,0.11669921875,-0.03173828125
1969/12/31/18:00:07.358000,38,1730344605,332372747,RL_myo,-0.0526752912966072,-0.254098769024074,0.7569860517503161,0.5996926268704125,51.0,-53.1875,171.75,0.16748046875,0.21240234375,-0.09814453125
1969/12/31/18:00:07.374000,39,1730344605,347294069,RL_myo,-0.0592053651480246,-0.2280322105082682,0.7740033355073206,0.5877200628972471,93.0625,-50.6875,158.625,0.28271484375,0.330078125,-0.1083984375
1969/12/31/18:00:07.396000,40,1730344605,370033981,RL_myo,-0.0620134698925119,-0.2037411048240204,0.7926249212836218,0.5713051950727476,122.0,-56.0625,142.375,0.2421875,0.3447265625,-0.2353515625
1969/12/31/18:00:07.419000,41,1730344605,392504347,RL_myo,-0.0636640030528138,-0.1793945397624352,0.8120059756582769,0.55173434668685,138.75,-59.4375,138.6875,0.37353515625,0.4931640625,-0.4091796875
1969/12/31/18:00:07.440000,42,1730344605,413492821,RL_myo,-0.0675076936015682,-0.1570499960550046,0.8317607058847836,0.5281591977706782,157.1875,-40.25,135.4375,0.56982421875,0.65771484375,-0.52587890625
1969/12/31/18:00:07.457000,43,1730344605,430439589,RL_myo,-0.073611875837444,-0.1393498445579474,0.8466586482099384,0.5082637563004944,125.375,-16.75,115.9375,0.5029296875,0.8603515625,-0.607421875
1969/12/31/18:00:07.479000,44,1730344605,452849872,RL_myo,-0.0834968245649629,-0.124268665799901,0.8550489878147417,0.4964643062948896,54.6875,-2.8125,90.4375,0.3955078125,0.9853515625,-0.76708984375
1969/12/31/18:00:07.493000,45,1730344605,466886311,RL_myo,-0.0961316526286748,-0.1118789328688006,0.8576164133876257,0.492682349218199,6.4375,11.4375,70.6875,0.5498046875,1.068359375,-0.6875
1969/12/31/18:00:07.516000,46,1730344605,489908749,RL_myo,-0.110108646289023,-0.1054088869961989,0.8599949147518489,0.4870049272395317,13.25,34.375,42.5,0.64013671875,0.9443359375,-0.693359375
1969/12/31/18:00:07.539000,47,1730344605,512508570,RL_myo,-0.120181951488968,-0.104434392583862,0.8590354419785352,0.4865263257077521,-18.5625,38.875,15.6875,0.3984375,0.9853515625,-0.7548828125
1969/12/31/18:00:07.560000,48,1730344605,533513734,RL_myo,-0.1278759184586296,-0.1053526659950333,0.8524043920165935,0.4959388245710577,-70.25,36.1875,0.125,0.24609375,1.134765625,-0.640625
1969/12/31/18:00:07.576000,49,1730344605,549939531,RL_myo,-0.1348339202796491,-0.1073055825493993,0.8455045105086918,0.5053983068879562,-72.9375,40.6875,1.6875,0.1044921875,1.03466796875,-0.59814453125
1969/12/31/18:00:07.599000,50,1730344605,572980921,RL_myo,-0.1407532079228009,-0.1064499543006785,0.8418946213699884,0.5099709679943634,-54.625,32.625,23.5625,-0.025390625,0.7197265625,-0.642578125
1969/12/31/18:00:07.620000,51,1730344605,593556008,RL_myo,-0.1430075308565347,-0.1032120079720017,0.8412602636771737,0.5110550814604204,-24.5625,9.9375,34.375,-0.09375,0.8115234375,-0.61083984375
1969/12/31/18:00:07.636000,52,1730344605,609976961,RL_myo,-0.1410587927372005,-0.1004074920176091,0.8469020983248191,0.5027699159568674,43.625,-11.1875,26.5,-0.01171875,0.7880859375,-0.59423828125
1969/12/31/18:00:07.659000,53,1730344605,632539666,RL_myo,-0.1395921153750237,-0.0961946540581711,0.8540937780685207,0.4917158204902453,59.9375,-17.0,29.0625,0.1357421875,0.81396484375,-0.64306640625
1969/12/31/18:00:07.680000,54,1730344605,653667879,RL_myo,-0.1388557954428632,-0.0921636268653729,0.8598683279995857,0.4825467774818799,52.375,-15.875,23.5,0.25,1.00634765625,-0.681640625
1969/12/31/18:00:07.696000,55,1730344605,670038718,RL_myo,-0.1373968863060477,-0.0911299650177384,0.8620418593071134,0.4792715909707183,25.625,-11.375,3.6875,0.21875,1.1552734375,-0.6220703125
1969/12/31/18:00:07.719000,56,1730344605,692531213,RL_myo,-0.1370248535406381,-0.0900885005906378,0.8607236011715275,0.4819368568182088,-15.1875,-5.3125,1.6875,0.17626953125,1.041015625,-0.57177734375
1969/12/31/18:00:07.740000,57,1730344605,713565207,RL_myo,-0.1378275553561126,-0.0873477554094761,0.8565085282360372,0.4896601634485099,-58.0625,-1.625,10.4375,0.1123046875,0.919921875,-0.60498046875
1969/12/31/18:00:07.756000,58,1730344605,729959162,RL_myo,-0.1397741785310584,-0.0847190217472092,0.8525614522802728,0.4964119624424011,-53.875,3.5,11.9375,0.1220703125,0.79052734375,-0.53125
1969/12/31/18:00:07.779000,59,1730344605,752272607,RL_myo,-0.1416724319534338,-0.0828914961623279,0.8499125129339136,0.5007061436079354,-36.9375,7.0625,13.1875,0.07470703125,0.7275390625,-0.48095703125
1969/12/31/18:00:07.800000,60,1730344605,773593213,RL_myo,-0.1406921496625418,-0.0828283067644552,0.8495852629730669,0.5015476762590482,-4.6875,-1.25,4.1875,0.04296875,0.91748046875,-0.4814453125
1969/12/31/18:00:07.816000,61,1730344605,790195233,RL_myo,-0.1368433001647343,-0.0846572958646237,0.8493195904515066,0.5027556928889012,0.1875,-10.6875,-13.875,0.060546875,1.05419921875,-0.4921875
1969/12/31/18:00:07.839000,62,1730344605,812595335,RL_myo,-0.133488530930418,-0.0853301171653975,0.8494558230263505,0.5033134092602778,2.8125,-10.8125,-4.75,0.0166015625,0.9912109375,-0.46875
1969/12/31/18:00:07.860000,63,1730344605,833577265,RL_myo,-0.1298891487529292,-0.0846598915978913,0.84873525066235,0.505578862368662,-6.5,-17.1875,-2.0625,0.0439453125,1.01171875,-0.43408203125
1969/12/31/18:00:07.876000,64,1730344605,850067878,RL_myo,-0.126344687198806,-0.0836194306581469,0.8473028732820411,0.5090409136415663,-16.9375,-20.0625,-6.0,0.09326171875,0.91357421875,-0.41259765625
1969/12/31/18:00:07.899000,65,1730344605,872439583,RL_myo,-0.1224388099889672,-0.082826253816066,0.8479162255068458,0.5091037458215232,4.1875,-19.8125,-2.8125,0.05029296875,0.892578125,-0.43603515625
1969/12/31/18:00:07.927000,66,1730344605,901027700,RL_myo,-0.1170085979036111,-0.082156271663151,0.8503113079787205,0.5064879214419226,16.5625,-23.1875,-0.625,-0.0341796875,0.85302734375,-0.5283203125
1969/12/31/18:00:07.935000,67,1730344605,909292857,RL_myo,-0.1109675416329848,-0.079899071505818,0.8547186388815661,0.5007578171380682,37.3125,-31.1875,8.0,-0.03662109375,0.83935546875,-0.533203125
1969/12/31/18:00:07.959000,68,1730344605,932516064,RL_myo,-0.1046173930437461,-0.0769676386395355,0.8568982385887699,0.4988552819991463,10.75,-36.5,3.375,0.03271484375,0.998046875,-0.64208984375
1969/12/31/18:00:07.980000,69,1730344605,953693225,RL_myo,-0.098269663162512,-0.0745262476530603,0.8570823665391263,0.5001986892029725,-10.375,-35.0625,-0.9375,0.01953125,1.048828125,-0.6689453125
1969/12/31/18:00:07.997000,70,1730344605,970804446,RL_myo,-0.0943028465654345,-0.0706813568432188,0.8555618124968903,0.5041082263973615,-24.1875,-30.25,6.6875,0.06494140625,0.97216796875,-0.52734375
1969/12/31/18:00:08.019000,71,1730344605,992554804,RL_myo,-0.0928987351887066,-0.0679955262813529,0.853911501504603,0.5075249560407987,-32.1875,-16.75,1.6875,0.16455078125,0.83154296875,-0.6015625
1969/12/31/18:00:08.040000,72,1730344606,13665345,RL_myo,-0.092412248455347,-0.0672033590154142,0.8534399325645065,0.5085115203972896,-12.625,-5.9375,-1.375,0.13037109375,0.78369140625,-0.51220703125
1969/12/31/18:00:08.056000,73,1730344606,29460868,RL_myo,-0.0923515967220023,-0.066165982053305,0.854542203640471,0.5068045654876308,4.125,-3.0625,5.125,0.10107421875,0.8359375,-0.55810546875
1969/12/31/18:00:08.079000,74,1730344606,52602456,RL_myo,-0.0922268618069892,-0.0662861495184581,0.8554941727907086,0.5052030014404034,6.25,0.0,-0.5,0.1015625,0.89306640625,-0.548828125
1969/12/31/18:00:08.084000,75,1730344606,58066509,RL_myo,-0.0916186247373761,-0.0669591148147246,0.8553920100397001,0.5053978766325615,-2.5625,-0.125,-3.3125,0.0654296875,0.91015625,-0.5244140625
1969/12/31/18:00:08.116000,76,1730344606,89419817,RL_myo,-0.0915566607456649,-0.0670805134396571,0.8541626069832234,0.5074680516263055,-11.875,1.4375,0.6875,0.04638671875,0.943359375,-0.47509765625
1969/12/31/18:00:08.122000,77,1730344606,95503598,RL_myo,-0.0924100138580838,-0.0668355120043604,0.8527478887789225,0.509719964153803,-16.0,5.125,5.125,0.0419921875,0.9462890625,-0.498046875
1969/12/31/18:00:08.144000,78,1730344606,118102017,RL_myo,-0.0934462816115792,-0.0667124662321724,0.8513316367853081,0.5119098392399182,-11.0,5.9375,5.4375,0.04345703125,0.9755859375,-0.4365234375
1969/12/31/18:00:08.167000,79,1730344606,140555134,RL_myo,-0.0940589708322106,-0.0673244937235096,0.8506202579608615,0.5128991122018598,-2.9375,6.5625,2.25,0.02734375,0.94775390625,-0.42919921875
1969/12/31/18:00:08.182000,80,1730344606,155670419,RL_myo,-0.0943026577251685,-0.067812461315639,0.8503719271372482,0.513201777445448,0.875,5.8125,4.875,-0.01025390625,0.93798828125,-0.43701171875
1969/12/31/18:00:08.204000,81,1730344606,178015710,RL_myo,-0.0944830390682448,-0.0670780748940575,0.8507135649439259,0.5126986616106312,5.375,1.4375,9.875,0.00927734375,0.94873046875,-0.44873046875
1969/12/31/18:00:08.227000,82,1730344606,200518610,RL_myo,-0.0946091701509644,-0.0665926481514207,0.8510552641386434,0.5121713204753179,5.875,1.0625,7.625,0.02880859375,0.97607421875,-0.46240234375
1969/12/31/18:00:08.242000,83,1730344606,215532393,RL_myo,-0.0942393658839031,-0.0662849425841443,0.8515723010441822,0.5114194603246275,6.6875,1.0625,8.625,-0.01318359375,0.9951171875,-0.49267578125
1969/12/31/18:00:08.264000,84,1730344606,237827375,RL_myo,-0.0938121098052335,-0.0653083653165906,0.8524267570200985,0.5101987155900761,7.25,-1.0,12.0625,-0.0263671875,0.92529296875,-0.49609375
1969/12/31/18:00:08.287000,85,1730344606,260491329,RL_myo,-0.0936924126397111,-0.0629295618446529,0.8534859973557534,0.5087467487635131,6.5625,-5.625,15.4375,0.05029296875,0.89599609375,-0.5087890625
1969/12/31/18:00:08.302000,86,1730344606,275565618,RL_myo,-0.0944241929061422,-0.0600603786810885,0.8548838046822418,0.5066068526961736,9.8125,-5.5625,16.0625,0.12890625,0.88427734375,-0.51806640625
1969/12/31/18:00:08.324000,87,1730344606,298041374,RL_myo,-0.0955861067910842,-0.0575591945747078,0.8560022743538735,0.5047874221981271,9.9375,-2.5,15.1875,0.138671875,0.9072265625,-0.4970703125
1969/12/31/18:00:08.347000,88,1730344606,320492859,RL_myo,-0.0968646011987595,-0.0552988838601614,0.8575599539020616,0.5021456043240043,14.0,0.1875,16.9375,0.10693359375,0.8876953125,-0.51806640625
1969/12/31/18:00:08.369000,89,1730344606,342997717,RL_myo,-0.098086999818667,-0.0532855947988153,0.8590394744542125,0.4995905995742311,12.625,0.3125,14.6875,0.1259765625,0.89794921875,-0.541015625
1969/12/31/18:00:08.384000,90,1730344606,357954504,RL_myo,-0.0990054826813789,-0.0524326199897068,0.8609570488414611,0.4961871570387974,16.875,3.625,11.25,0.087890625,0.884765625,-0.5732421875
1969/12/31/18:00:08.407000,91,1730344606,380333904,RL_myo,-0.1005254333668984,-0.0519411923468309,0.8628585619355458,0.4926173483328704,18.1875,7.5625,10.9375,0.099609375,0.88134765625,-0.57177734375
1969/12/31/18:00:08.422000,92,1730344606,395593690,RL_myo,-0.1021147975112929,-0.0523086559875541,0.8643440810265506,0.4896383177738146,13.875,10.375,6.125,0.1015625,0.84521484375,-0.5712890625
1969/12/31/18:00:08.444000,93,1730344606,417931729,RL_myo,-0.102483105325375,-0.0533473698954006,0.8650941344708396,0.4881223307248504,5.1875,8.0,1.625,0.0546875,0.8955078125,-0.60791015625
1969/12/31/18:00:08.467000,94,1730344606,440561188,RL_myo,-0.1018703332406024,-0.0551772206408056,0.8651959099374112,0.4878667307322559,-1.9375,4.6875,-7.4375,0.07568359375,0.8876953125,-0.59912109375
1969/12/31/18:00:08.482000,95,1730344606,455412391,RL_myo,-0.1013240899710828,-0.0566438286103402,0.8638794249161057,0.4901400255830091,-15.1875,3.25,-7.875,0.08447265625,0.9462890625,-0.57177734375
1969/12/31/18:00:08.507000,96,1730344606,480840150,RL_myo,-0.0990011666044823,-0.0584729455037571,0.8617740266884621,0.4940902858589915,-28.0,-2.25,-12.5,0.02392578125,0.955078125,-0.615234375
1969/12/31/18:00:08.527000,97,1730344606,500483527,RL_myo,-0.0960138143876114,-0.059634772191161,0.8599126618516656,0.4977702837450549,-27.125,-8.5625,-12.5,0.04248046875,0.9404296875,-0.61279296875
1969/12/31/18:00:08.542000,98,1730344606,515461379,RL_myo,-0.0929598399991232,-0.0606710971497888,0.8581236970109476,0.5012995179992114,-24.375,-11.1875,-14.8125,0.0830078125,0.94384765625,-0.58056640625
1969/12/31/18:00:08.564000,99,1730344606,538000770,RL_myo,-0.0894807058637897,-0.0621359881100531,0.8559873253982181,0.5053889799128098,-25.6875,-12.8125,-20.0625,0.09521484375,0.98583984375,-0.55126953125
1969/12/31/18:00:08.587000,100,1730344606,560437726,RL_myo,-0.0857548555157673,-0.0639651876017965,0.8542526390026186,0.5087307620810821,-19.9375,-12.875,-21.5625,0.08447265625,0.97998046875,-0.53466796875
1969/12/31/18:00:08.602000,101,1730344606,575542003,RL_myo,-0.0809960994433225,-0.066713441365148,0.8531141536694188,0.5110628037972414,-13.125,-13.8125,-25.5,0.02490234375,0.9814453125,-0.53564453125
1969/12/31/18:00:08.624000,102,1730344606,598003603,RL_myo,-0.0756226450807054,-0.0696411929274292,0.8525400375200107,0.5124517579480248,-5.9375,-17.125,-29.0,0.0322265625,0.97802734375,-0.52783203125
1969/12/31/18:00:08.648000,103,1730344606,621942620,RL_myo,-0.0704986153789962,-0.0718414461481199,0.8524533873446415,0.5130223915675005,-1.125,-18.5,-25.9375,0.0478515625,0.9609375,-0.51806640625
1969/12/31/18:00:08.662000,104,1730344606,635424426,RL_myo,-0.0654311058958324,-0.0734268846946702,0.8526185804653765,0.5131947186307456,3.125,-21.0,-23.9375,0.056640625,0.9560546875,-0.49462890625
1969/12/31/18:00:08.684000,105,1730344606,657930459,RL_myo,-0.0603051576564188,-0.0751372966346676,0.8528785100537861,0.5131431785602362,3.375,-21.25,-25.8125,0.0654296875,0.94873046875,-0.50732421875
1969/12/31/18:00:08.707000,106,1730344606,680474835,RL_myo,-0.0556033751307383,-0.0762944225174785,0.8541313189676758,0.5114167730191622,12.4375,-20.75,-21.0,0.06201171875,0.88525390625,-0.50341796875
1969/12/31/18:00:08.723000,107,1730344606,696915201,RL_myo,-0.0509652050052227,-0.0776990490678425,0.8552388653091981,0.5098351585732038,14.5625,-19.4375,-21.9375,0.044921875,0.9267578125,-0.48291015625
1969/12/31/18:00:08.744000,108,1730344606,717923207,RL_myo,-0.0449238218744997,-0.0801426333168724,0.8563603544826509,0.5081396971538181,17.1875,-20.375,-25.3125,-0.0595703125,0.94091796875,-0.47802734375
1969/12/31/18:00:08.767000,109,1730344606,740427954,RL_myo,-0.0390650598607379,-0.0816093516153229,0.8574780639431985,0.5065029167568807,15.125,-21.9375,-19.75,-0.0712890625,0.88427734375,-0.4736328125
1969/12/31/18:00:08.782000,110,1730344606,755408670,RL_myo,-0.0341196658357834,-0.0821557606707772,0.8591563797933583,0.5039212184977242,20.25,-21.6875,-15.0625,-0.0341796875,0.82470703125,-0.46044921875
1969/12/31/18:00:08.804000,111,1730344606,777857154,RL_myo,-0.0289311965940818,-0.0834976306765905,0.8610387982124734,0.5008026752203405,26.6875,-19.875,-18.8125,-0.0546875,0.875,-0.44677734375
1969/12/31/18:00:08.827000,112,1730344606,800496061,RL_myo,-0.0227059352531457,-0.0852693321200122,0.8631307269213263,0.4972111520756045,30.4375,-22.0,-21.75,-0.1025390625,0.890625,-0.46240234375
1969/12/31/18:00:08.843000,113,1730344606,816909559,RL_myo,-0.016785463315867,-0.0860636482740819,0.8647260319850492,0.494530268309654,22.75,-24.625,-17.6875,-0.09130859375,0.87890625,-0.49267578125
1969/12/31/18:00:08.864000,114,1730344606,838045364,RL_myo,-0.0125129976855929,-0.0860650084716396,0.865838400829935,0.4927069137468619,15.0625,-21.5625,-13.5625,-0.02685546875,0.83837890625,-0.490234375
1969/12/31/18:00:08.887000,115,1730344606,860796273,RL_myo,-0.0090946982700141,-0.0860639232263084,0.8666820183619528,0.491296821311033,12.25,-16.875,-10.4375,-0.04345703125,0.81005859375,-0.4677734375
1969/12/31/18:00:08.903000,116,1730344606,876996580,RL_myo,-0.0048831192105097,-0.0864312100260222,0.8676082057273167,0.4896547788338634,15.0625,-16.625,-8.625,-0.14794921875,0.826171875,-0.47021484375
1969/12/31/18:00:08.926000,117,1730344606,899415057,RL_myo,-0.0002441529291196,-0.0866742898374808,0.8689402747368851,0.4872682082905699,17.1875,-18.75,-9.5625,-0.14697265625,0.80419921875,-0.5107421875
1969/12/31/18:00:08.947000,118,1730344606,920486955,RL_myo,0.0032349279538333,-0.0864275091061887,0.8701956195811676,0.4850560839455383,16.375,-17.1875,-8.75,-0.0732421875,0.8134765625,-0.50732421875
1969/12/31/18:00:08.963000,119,1730344606,936966223,RL_myo,0.006103793073907,-0.0861245202728282,0.8712554233694899,0.4831762597304808,14.875,-14.0,-5.5625,-0.09814453125,0.8251953125,-0.5009765625
1969/12/31/18:00:08.984000,120,1730344606,957960347,RL_myo,0.0093384522927646,-0.085694032804193,0.8719550944734338,0.4819373810697349,9.8125,-14.375,-3.125,-0.15478515625,0.814453125,-0.51953125
1969/12/31/18:00:09.007000,121,1730344606,980547209,RL_myo,0.0121463060952908,-0.0846579223827559,0.872825010867635,0.480481012975526,10.75,-15.0625,0.125,-0.13427734375,0.779296875,-0.505859375
1969/12/31/18:00:09.023000,122,1730344606,996973243,RL_myo,0.0142218821051281,-0.0833780727708372,0.8738827729575968,0.4787219800451513,13.875,-12.3125,1.5,-0.1083984375,0.7978515625,-0.49755859375
1969/12/31/18:00:09.044000,123,1730344607,18020245,RL_myo,0.0164191096237372,-0.082217623283175,0.8747906287264029,0.4771918179865348,13.0,-11.8125,2.1875,-0.1435546875,0.82861328125,-0.51123046875
1969/12/31/18:00:09.067000,124,1730344607,40458541,RL_myo,0.0187380647205372,-0.0805675746941666,0.8758671945918871,0.475409726737018,13.0,-12.75,5.875,-0.169921875,0.80908203125,-0.537109375
1969/12/31/18:00:09.083000,125,1730344607,56953773,RL_myo,0.0203252935483881,-0.0784324390681045,0.8765511731183263,0.474439960215079,8.5,-12.5,7.625,-0.1279296875,0.8125,-0.52490234375
1969/12/31/18:00:09.104000,126,1730344607,77986464,RL_myo,0.0209972945942938,-0.0759931156101623,0.8773695130766861,0.4732936694306821,9.8125,-10.125,9.5625,-0.0849609375,0.7900390625,-0.5048828125
1969/12/31/18:00:09.127000,127,1730344607,100433504,RL_myo,0.0214244338979058,-0.0738563105882225,0.8784628280873542,0.4715816988467828,13.375,-7.1875,9.6875,-0.10107421875,0.83349609375,-0.53271484375
1969/12/31/18:00:09.143000,128,1730344607,116807980,RL_myo,0.0220951263494773,-0.0715955337235827,0.8796545882559882,0.4696740255779787,13.625,-7.5,11.3125,-0.1376953125,0.8388671875,-0.56640625
1969/12/31/18:00:09.164000,129,1730344607,138079084,RL_myo,0.0219129672494878,-0.0684246136119105,0.8804862188686974,0.4685956812655105,9.75,-8.0625,14.8125,-0.072265625,0.8486328125,-0.54443359375
1969/12/31/18:00:09.182000,130,1730344607,156026593,RL_myo,0.0208743610485321,-0.065796962603268,0.88069051336044,0.4686355091538886,3.6875,-3.875,12.6875,-0.046875,0.87255859375,-0.5361328125
1969/12/31/18:00:09.205000,131,1730344607,178379136,RL_myo,0.0200816325131826,-0.0634799325644679,0.8809671795220824,0.468469694646434,3.6875,-2.8125,12.1875,-0.06982421875,0.86083984375,-0.55029296875
1969/12/31/18:00:09.232000,132,1730344607,205401192,RL_myo,0.0193494341618877,-0.0612833813833922,0.8815895192433607,0.4676214987830357,5.75,-2.875,11.875,-0.06884765625,0.8330078125,-0.5693359375
1969/12/31/18:00:09.242000,133,1730344607,215919674,RL_myo,0.0179450105707282,-0.0592063273932191,0.8819301283552826,0.4673027242499857,2.75,-0.75,10.875,-0.03173828125,0.84765625,-0.568359375
1969/12/31/18:00:09.265000,134,1730344607,238524269,RL_myo,0.0159917017730062,-0.0569475486802092,0.8819240416723931,0.4676657213159302,-1.0,1.5,13.1875,-0.0244140625,0.833984375,-0.548828125
1969/12/31/18:00:09.284000,135,1730344607,257986292,RL_myo,0.0146489940879087,-0.0551778777311227,0.8814421817645398,0.4688288482884447,-3.4375,2.3125,12.875,-0.09130859375,0.87255859375,-0.525390625
1969/12/31/18:00:09.302000,136,1730344607,275939207,RL_myo,0.0149539849135017,-0.0538343456886061,0.881003339761158,0.4697992729764191,-4.0625,-2.875,9.125,-0.13671875,0.87548828125,-0.55810546875
1969/12/31/18:00:09.325000,137,1730344607,298400583,RL_myo,0.014527079554784,-0.0516382743838123,0.8803532286497929,0.4712755514390245,-6.9375,-5.25,10.4375,-0.05078125,0.86962890625,-0.54736328125
1969/12/31/18:00:09.345000,138,1730344607,318212350,RL_myo,0.0123906274183579,-0.0484027957771322,0.8799176594238813,0.4724918563818164,-6.5,-1.6875,17.4375,0.01318359375,0.82568359375,-0.52685546875
1969/12/31/18:00:09.362000,139,1730344607,335806552,RL_myo,0.0099489869100138,-0.0450451063778541,0.8799665293353973,0.4727905067789406,-1.5,0.6875,19.5625,0.0078125,0.79296875,-0.5244140625
1969/12/31/18:00:09.385000,140,1730344607,358504257,RL_myo,0.0080570570471496,-0.0426657793633152,0.8802945207120645,0.4724365268555942,3.0625,2.3125,16.0,-0.0322265625,0.8515625,-0.5537109375
1969/12/31/18:00:09.405000,141,1730344607,378220454,RL_myo,0.0068363492563562,-0.0404687460443228,0.8806682774170292,0.4719522540191621,4.5,0.4375,14.4375,-0.05615234375,0.8857421875,-0.57080078125
1969/12/31/18:00:09.422000,142,1730344607,396055530,RL_myo,0.0048218826524754,-0.037659513880726,0.8803903212570385,0.4727276094104106,-3.5,0.3125,16.25,0.01025390625,0.892578125,-0.56298828125
1969/12/31/18:00:09.445000,143,1730344607,418355785,RL_myo,0.0023194330680856,-0.035096684582875,0.8796144722153262,0.4743851001358348,-10.0625,3.0625,16.1875,0.01806640625,0.86083984375,-0.5537109375
1969/12/31/18:00:09.464000,144,1730344607,437946800,RL_myo,0.0001831140139371,-0.0327774084947553,0.8789472668984677,0.4757912462134414,-8.0,3.4375,16.25,-0.01806640625,0.8701171875,-0.546875
1969/12/31/18:00:09.483000,145,1730344607,456283960,RL_myo,-0.001648033950855,-0.0308243387104375,0.8785852106891854,0.4765870032694983,-4.625,3.3125,13.875,-0.01171875,0.8779296875,-0.5615234375
1969/12/31/18:00:09.505000,146,1730344607,478517674,RL_myo,-0.0034182079249151,-0.0288106096528563,0.8781132001398135,0.477572478652433,-5.4375,2.3125,13.625,0.0,0.8984375,-0.55908203125
1969/12/31/18:00:09.524000,147,1730344607,498073670,RL_myo,-0.004944096372592,-0.0268568198017343,0.8772413958875588,0.4792721570073136,-9.5,1.4375,12.5,0.00146484375,0.91650390625,-0.55908203125
1969/12/31/18:00:09.542000,148,1730344607,516077172,RL_myo,-0.0061035876923628,-0.0251467812925348,0.8762920849925296,0.4810847819120372,-11.375,0.125,10.5,0.0029296875,0.8935546875,-0.5625
1969/12/31/18:00:09.564000,149,1730344607,538338015,RL_myo,-0.0070804658480627,-0.0231946295022745,0.8753531097161018,0.482875563138141,-10.625,-2.125,10.125,0.02685546875,0.89208984375,-0.5439453125
1969/12/31/18:00:09.592000,150,1730344607,565391935,RL_myo,-0.007934777747954,-0.0211797529118465,0.8742904343207202,0.4848759571518989,-11.9375,-2.6875,10.5,0.01953125,0.90625,-0.54150390625
1969/12/31/18:00:09.602000,151,1730344607,575765876,RL_myo,-0.0090335251683742,-0.0186774236589359,0.8730780000569291,0.4871389484378042,-15.0,-3.3125,12.8125,0.03759765625,0.873046875,-0.54052734375
1969/12/31/18:00:09.624000,152,1730344607,598298628,RL_myo,-0.0112310836753088,-0.0162362405306094,0.8719349472923177,0.4892235633565227,-14.9375,1.8125,14.4375,0.06396484375,0.88037109375,-0.55419921875
1969/12/31/18:00:09.644000,153,1730344607,618020794,RL_myo,-0.0133060600250548,-0.0142826515865267,0.8713638207233186,0.4902489638589027,-6.1875,4.125,14.25,0.02734375,0.865234375,-0.51025390625
1969/12/31/18:00:09.674000,154,1730344607,647905933,RL_myo,-0.0147711816602606,-0.0128179675564245,0.8712555661924013,0.4904398538851019,-1.375,2.9375,10.875,0.025390625,0.896484375,-0.53955078125
1969/12/31/18:00:09.685000,155,1730344607,658322638,RL_myo,-0.0158082982185315,-0.0112306056842077,0.8711654072320498,0.4906065678785971,-2.9375,0.8125,10.9375,0.01416015625,0.89111328125,-0.56640625
1969/12/31/18:00:09.704000,156,1730344607,677999982,RL_myo,-0.0178232214639509,-0.0089116107319754,0.8705911223983982,0.4916035125707564,-7.5625,1.4375,13.5,0.08154296875,0.90673828125,-0.5576171875
1969/12/31/18:00:09.722000,157,1730344607,695838740,RL_myo,-0.0201426154141355,-0.0065310904524621,0.8697337182909624,0.4930668100466274,-10.9375,3.375,15.6875,0.0703125,0.88427734375,-0.54052734375
1969/12/31/18:00:09.745000,158,1730344607,718473056,RL_myo,-0.0214236802735711,-0.0045166733340292,0.8690323639176792,0.4942705494455237,-9.5625,1.0,13.9375,0.0234375,0.88037109375,-0.544921875
1969/12/31/18:00:09.764000,159,1730344607,737941502,RL_myo,-0.0222181118223023,-0.0029908996683868,0.8682764853633278,0.4955737634210796,-7.9375,-0.4375,9.9375,0.0390625,0.93603515625,-0.53759765625
1969/12/31/18:00:09.782000,160,1730344607,755818036,RL_myo,-0.0227670809869883,-0.0012207550127071,0.8674685120297023,0.4969693656730816,-8.0,-2.125,10.25,0.0341796875,0.9326171875,-0.5205078125
1969/12/31/18:00:09.804000,161,1730344607,778347049,RL_myo,-0.0238659766523757,0.0008545362484226,0.8665607942040388,0.4984998243477062,-8.5625,-0.8125,12.6875,0.0576171875,0.91943359375,-0.50537109375
1969/12/31/18:00:09.826000,162,1730344607,799486562,RL_myo,-0.0257580628155001,0.0031129412407358,0.865763893305817,0.4997796642969564,-8.9375,1.875,14.4375,0.0791015625,0.8798828125,-0.50537109375
1969/12/31/18:00:09.842000,163,1730344607,815923744,RL_myo,-0.0275286076263695,0.0048831233040123,0.8651673713883848,0.5007032557851645,-5.125,2.875,12.125,0.07958984375,0.916015625,-0.5029296875
1969/12/31/18:00:09.871000,164,1730344607,844616212,RL_myo,-0.0285052879381179,0.0056156027629697,0.8647417863368667,0.501375664076447,-2.6875,2.3125,6.0,0.0703125,0.9697265625,-0.51904296875
1969/12/31/18:00:09.886000,165,1730344607,859614537,RL_myo,-0.0291145091293731,0.0062257440905577,0.8639135476250474,0.5027593536659258,-8.5625,1.875,5.0,0.0517578125,0.96484375,-0.53515625
1969/12/31/18:00:09.902000,166,1730344607,875937134,RL_myo,-0.0306415415369827,0.0074467491384699,0.8622358879510336,0.5055243964328515,-16.625,2.875,8.1875,0.09912109375,0.951171875,-0.498046875
1969/12/31/18:00:09.924000,167,1730344607,897600775,RL_myo,-0.0325935108312606,0.0080568229021093,0.860554137097274,0.5082512447414002,-19.0625,7.75,6.875,0.08740234375,0.90625,-0.51123046875
1969/12/31/18:00:09.952000,168,1730344607,926251691,RL_myo,-0.0342423752720532,0.0083011818841341,0.8597216679266835,0.5095460762408203,-7.4375,7.8125,6.5625,0.05517578125,0.9140625,-0.4775390625
1969/12/31/18:00:09.967000,169,1730344607,941081531,RL_myo,-0.0349735290089674,0.0075684425778568,0.8593844475501949,0.5100764082512059,-2.6875,8.0,2.4375,0.0126953125,0.955078125,-0.5087890625
1969/12/31/18:00:09.984000,170,1730344607,957523386,RL_myo,-0.0352796278367996,0.0070193031163182,0.859223738855759,0.5103338552655395,0.25,5.125,2.4375,0.001953125,0.93994140625,-0.4765625
1969/12/31/18:00:10.014000,171,1730344607,987573333,RL_myo,-0.0363784025414514,0.0070803602261885,0.8591040533069291,0.5104573497553,-0.625,5.25,3.0,0.07861328125,0.91650390625,-0.49755859375
1969/12/31/18:00:10.021000,172,1730344607,995090336,RL_myo,-0.0377202351738202,0.0067749936962686,0.8590203719034728,0.5105049304107323,-0.8125,5.5,-0.9375,0.13232421875,0.96142578125,-0.52783203125
1969/12/31/18:00:10.044000,173,1730344608,17610890,RL_myo,-0.0373558301580583,0.0062259716930097,0.8590620157590089,0.5104686398886309,1.25,-0.3125,-3.8125,0.07568359375,0.95068359375,-0.501953125
1969/12/31/18:00:10.065000,174,1730344608,38802823,RL_myo,-0.0365606296804455,0.006530863732567,0.859144279435646,0.5103839488946342,-2.0625,-2.8125,2.5,0.0166015625,0.89697265625,-0.52880859375
1969/12/31/18:00:10.082000,175,1730344608,55187663,RL_myo,-0.0371104629526626,0.0067751009666867,0.859766416367114,0.5092922744687775,5.0625,1.25,1.3125,0.1025390625,0.9453125,-0.546875
1969/12/31/18:00:10.104000,176,1730344608,77633928,RL_myo,-0.036621867026887,0.0057374258342123,0.858782781780502,0.5109971179151644,-3.6875,-2.125,-11.1875,0.14208984375,0.93359375,-0.388671875
1969/12/31/18:00:10.126000,177,1730344608,100220501,RL_myo,-0.0365003063769751,0.0055543944486701,0.8590389831932251,0.5105770281662163,3.5625,1.5,2.3125,0.0107421875,0.85791015625,-0.4560546875
1969/12/31/18:00:10.141000,178,1730344608,114971912,RL_myo,-0.0361340555760111,0.0050660922513664,0.8597097513312799,0.5094779761705498,5.0625,0.8125,-0.9375,0.03466796875,0.92138671875,-0.54052734375
1969/12/31/18:00:10.171000,179,1730344608,145083808,RL_myo,-0.0344865765047106,0.0040285204412582,0.861004687036192,0.507410461033026,12.75,-4.4375,-7.875,0.04052734375,0.91259765625,-0.52587890625
1969/12/31/18:00:10.187000,180,1730344608,160229653,RL_myo,-0.0341805655327324,0.0048829379332474,0.8615943983215191,0.50642170040193,11.125,-5.75,0.9375,0.1123046875,1.02294921875,-0.48876953125
1969/12/31/18:00:10.202000,181,1730344608,175234350,RL_myo,-0.0332651149286182,0.0059816169963386,0.861047662932142,0.5073998172506483,-1.25,-7.3125,3.8125,0.0517578125,0.99951171875,-0.46435546875
1969/12/31/18:00:10.224000,182,1730344608,197390355,RL_myo,-0.0321049604858815,0.0068970732602749,0.8613406889292028,0.5069654026534834,4.0,-8.4375,1.125,0.06103515625,0.8349609375,-0.44384765625
1969/12/31/18:00:10.246000,183,1730344608,220070918,RL_myo,-0.0332665983998879,0.0082403500623575,0.8623068543031513,0.5052250182676565,12.9375,-1.3125,6.0625,0.13134765625,0.82080078125,-0.42919921875
1969/12/31/18:00:10.261000,184,1730344608,234508278,RL_myo,-0.0334487069130093,0.0087284034462779,0.8647223190448968,0.5010591880454266,28.0625,0.25,5.75,0.0341796875,0.91943359375,-0.51513671875
1969/12/31/18:00:10.284000,185,1730344608,257780372,RL_myo,-0.0303968054221128,0.0081180223316084,0.8678959363394039,0.4957487020851422,40.5625,-11.125,-5.0,-0.025390625,1.0224609375,-0.52001953125
1969/12/31/18:00:10.307000,186,1730344608,280360849,RL_myo,-0.0275892336565669,0.0077518421999646,0.8708309658810639,0.4907465455725628,39.25,-14.125,-8.8125,0.06005859375,0.99853515625,-0.5029296875
1969/12/31/18:00:10.321000,187,1730344608,294432562,RL_myo,-0.0254530063490843,0.0080570667579835,0.8717502078600049,0.4892226520093782,10.4375,-11.9375,-4.9375,0.0751953125,1.044921875,-0.63037109375
1969/12/31/18:00:10.351000,188,1730344608,324980425,RL_myo,-0.0217898761681123,0.0083619412745977,0.8685432433396059,0.4950635450968055,-36.625,-18.375,-8.875,0.0498046875,1.1171875,-0.62890625
1969/12/31/18:00:10.366000,189,1730344608,340091219,RL_myo,-0.0167240382158594,0.0095827518244158,0.8636073602780869,0.5037963920938108,-73.5625,-25.8125,-7.5625,0.00927734375,0.9296875,-0.7802734375
1969/12/31/18:00:10.387000,190,1730344608,361098284,RL_myo,-0.011780403166968,0.0112920962999435,0.8555746693854497,0.5174221639709251,-98.75,-31.5,-13.5625,0.1494140625,1.06640625,-0.6845703125
1969/12/31/18:00:10.404000,191,1730344608,377573105,RL_myo,-0.0040895017538151,0.009094563601768,0.8472593111150445,0.5310858919394857,-99.3125,-32.8125,-40.625,0.12646484375,1.26513671875,-0.72412109375
1969/12/31/18:00:10.427000,192,1730344608,400881206,RL_myo,0.0050659974123661,0.004394600164944,0.8392465592775188,0.5437096981850281,-84.5625,-34.75,-62.3125,0.1748046875,1.376953125,-0.5947265625
1969/12/31/18:00:10.449000,193,1730344608,422559204,RL_myo,0.0143437420237206,-0.0028077112046431,0.831143553774488,0.5558657813192526,-83.1875,-27.125,-74.5625,0.1396484375,1.40234375,-0.5595703125
1969/12/31/18:00:10.464000,194,1730344608,437573326,RL_myo,0.0239261134016531,-0.0134889567902177,0.8229484362104326,0.5674517252427791,-83.375,-17.625,-93.0,0.1103515625,1.310546875,-0.5205078125
1969/12/31/18:00:10.487000,195,1730344608,460308980,RL_myo,0.0348527370752844,-0.0277112830686149,0.8151023658552506,0.5776032415821654,-75.75,-8.4375,-105.8125,0.11376953125,1.216796875,-0.501953125
1969/12/31/18:00:10.508000,196,1730344608,481439419,RL_myo,0.0451675855401786,-0.0443130636515807,0.8097205267243384,0.583394300801389,-47.6875,2.8125,-116.375,0.16748046875,1.10791015625,-0.42822265625
1969/12/31/18:00:10.524000,197,1730344608,497661209,RL_myo,0.0528576814307834,-0.0632339006492975,0.8052556479403306,0.58717193460062,-35.25,23.5,-119.3125,0.19287109375,0.966796875,-0.3134765625
1969/12/31/18:00:10.546000,198,1730344608,520144664,RL_myo,0.0579255359044352,-0.0855149376207732,0.8002757652719189,0.5906695584269971,-38.6875,46.75,-126.75,0.1796875,0.85302734375,-0.310546875
1969/12/31/18:00:10.568000,199,1730344608,541334402,RL_myo,0.0616491333463645,-0.1112125950070062,0.7949686264386658,0.5931745325346248,-38.125,64.6875,-137.75,0.1611328125,0.794921875,-0.35302734375
1969/12/31/18:00:10.591000,200,1730344608,565097190,RL_myo,0.065676334137792,-0.1402031036380188,0.7892757218734096,0.5941999189882949,-34.3125,75.125,-154.875,0.14453125,0.7412109375,-0.38623046875
1969/12/31/18:00:10.607000,201,1730344608,580272245,RL_myo,0.0692176205083421,-0.1711518588230965,0.7826962502455658,0.5943925824605255,-34.625,84.3125,-162.75,0.14111328125,0.58935546875,-0.3447265625
1969/12/31/18:00:10.627000,202,1730344608,601148927,RL_myo,0.0706205198858068,-0.2024007294220704,0.7759711921419729,0.593224574563662,-31.5625,96.0,-157.0,0.13232421875,0.46337890625,-0.3046875
1969/12/31/18:00:10.644000,203,1730344608,617603313,RL_myo,0.0704995531903726,-0.2336556620023779,0.7684146104879666,0.5915858610572223,-33.0,103.625,-152.0,0.1181640625,0.37255859375,-0.24560546875
1969/12/31/18:00:10.666000,204,1730344608,640014627,RL_myo,0.0699496668185035,-0.26527159859792,0.7604126956587409,0.5886514719002165,-29.5625,108.125,-153.3125,0.1220703125,0.2802734375,-0.21435546875
1969/12/31/18:00:10.688000,205,1730344608,661229302,RL_myo,0.0701946338747634,-0.2962213549515018,0.7527306303857243,0.5837141597777069,-19.0,105.3125,-152.375,0.14892578125,0.12744140625,-0.20068359375
1969/12/31/18:00:10.705000,206,1730344608,678213743,RL_myo,0.0704371346512012,-0.3249019651198823,0.7459378011891945,0.5771084125884816,-7.75,101.0625,-141.75,0.1884765625,0.0537109375,-0.18603515625
1969/12/31/18:00:10.726000,207,1730344608,700036672,RL_myo,0.0708011374517405,-0.3511370204826409,0.7394446381274455,0.5700101919498319,-3.0,93.25,-131.3125,0.140625,0.1181640625,-0.181640625
1969/12/31/18:00:10.747000,208,1730344608,721222569,RL_myo,0.072634825295751,-0.3743440197805386,0.7345273005118217,0.5613023978317029,13.875,82.0,-120.0,0.0166015625,0.208984375,-0.19091796875
1969/12/31/18:00:10.764000,209,1730344608,737646098,RL_myo,0.0750120506838015,-0.392516271722968,0.7310165427501147,0.5530994331135961,21.125,63.0,-98.75,-0.12939453125,0.2783203125,-0.12646484375
1969/12/31/18:00:10.786000,210,1730344608,760029763,RL_myo,0.0759325960924552,-0.4032850983784981,0.7249609676769216,0.5531970405031524,-15.0625,30.3125,-66.3125,-0.21923828125,0.40966796875,-0.0732421875
1969/12/31/18:00:10.808000,211,1730344608,781390569,RL_myo,0.073612246628297,-0.4063322767865452,0.7150642365261195,0.5640553657480043,-70.4375,-2.25,-26.875,-0.361328125,0.56640625,-0.02197265625
1969/12/31/18:00:10.824000,212,1730344608,797765160,RL_myo,0.0666539789832333,-0.4033420266677712,0.7022472785733516,0.5828560854495379,-130.0,-27.5,13.375,-0.4921875,0.5810546875,0.01171875
1969/12/31/18:00:10.846000,213,1730344608,820005449,RL_myo,0.0560951147041679,-0.3924826850356908,0.6843726072504146,0.6119189607282738,-194.125,-64.875,51.25,-0.59814453125,0.5849609375,0.0458984375
1969/12/31/18:00:10.867000,214,1730344608,841059116,RL_myo,0.0458388334450887,-0.3721429660648551,0.6592613049805642,0.6517537463737121,-257.8125,-125.25,78.8125,-0.8642578125,0.6025390625,0.13037109375
1969/12/31/18:00:10.883000,215,1730344608,857117748,RL_myo,0.0410174615677732,-0.3423004828453457,0.6298499790444227,0.6960150509781522,-277.125,-192.75,88.875,-1.021484375,0.6416015625,0.197265625
1969/12/31/18:00:10.906000,216,1730344608,880091287,RL_myo,0.0468152192345839,-0.3073202462139897,0.6026772812546046,0.7349440088704369,-224.4375,-240.875,69.9375,-1.04541015625,0.55029296875,0.44140625
1969/12/31/18:00:10.928000,217,1730344608,901265748,RL_myo,0.0621952739412455,-0.2672138462362838,0.5769084683931829,0.7693537075852803,-183.5,-287.8125,46.0,-0.88671875,0.58984375,0.59228515625
1969/12/31/18:00:10.944000,218,1730344608,917589239,RL_myo,0.0745893659548465,-0.2232187490154449,0.5522176708621083,0.7997908855207478,-171.6875,-289.8125,67.125,-0.7744140625,1.09619140625,0.62646484375
1969/12/31/18:00:10.966000,219,1730344608,940172711,RL_myo,0.0788604569549069,-0.1750555654386014,0.5335288345532827,0.8237011351443256,-132.1875,-273.75,124.875,-0.87548828125,1.16015625,0.74072265625
1969/12/31/18:00:10.987000,220,1730344608,961070796,RL_myo,0.0773363881065711,-0.1279987417991158,0.5077222385717908,0.8484418268992416,-175.5,-256.125,142.0,-0.8095703125,1.294921875,0.87890625
1969/12/31/18:00:11.003000,221,1730344608,976837249,RL_myo,0.072755750675347,-0.0818502195097653,0.475475920940397,0.872885897993404,-211.3125,-248.25,151.6875,-0.8466796875,1.20654296875,0.79296875
1969/12/31/18:00:11.026000,222,1730344609,100231,RL_myo,0.0680556030115497,-0.037598431798309,0.4439788845793834,0.8926575731335554,-197.0625,-237.5,146.125,-0.77294921875,1.0546875,0.70849609375
1969/12/31/18:00:11.047000,223,1730344609,21144799,RL_myo,0.061342869341241,0.0062258434555289,0.4193288680341553,0.9057381474175882,-146.625,-226.9375,154.125,-0.6865234375,1.0263671875,0.68994140625
1969/12/31/18:00:11.063000,224,1730344609,36841480,RL_myo,0.0505996527293887,0.0474867669764348,0.3996701158890685,0.9140287088330484,-111.25,-201.5625,166.0625,-0.5048828125,0.96142578125,0.5751953125
1969/12/31/18:00:11.086000,225,1730344609,59963601,RL_myo,0.0374163419436755,0.0836832052280247,0.3821594076824675,0.9195386482568876,-93.875,-169.375,165.1875,-0.40771484375,0.87255859375,0.56494140625
1969/12/31/18:00:11.109000,226,1730344609,82505991,RL_myo,0.0218518549891536,0.1170111899838199,0.3704438768971327,0.9211960768053268,-54.1875,-149.125,167.9375,-0.31787109375,0.8583984375,0.57373046875
1969/12/31/18:00:11.123000,227,1730344609,96869388,RL_myo,0.0046999232409041,0.1475287593930562,0.3659225951846803,0.9188655125788452,-7.0,-131.5,163.5625,-0.154296875,0.837890625,0.58740234375
1969/12/31/18:00:11.146000,228,1730344609,120000674,RL_myo,-0.0132452198673585,0.1732865401079762,0.3654337850040343,0.9144695117638956,21.3125,-105.4375,153.0625,-0.0126953125,0.7509765625,0.64111328125
1969/12/31/18:00:11.169000,229,1730344609,142544078,RL_myo,-0.0329605088166153,0.1953825717073807,0.3659837238230099,0.909282777483552,31.4375,-82.4375,152.25,0.1474609375,0.67822265625,0.64990234375
1969/12/31/18:00:11.183000,230,1730344609,156878565,RL_myo,-0.0527980443665718,0.2144272021500196,0.3625058791827402,0.9054406822355224,8.1875,-64.0625,150.625,0.2490234375,0.71728515625,0.72412109375
1969/12/31/18:00:11.206000,231,1730344609,180070481,RL_myo,-0.0697650778653968,0.2340151430760556,0.3537083344094268,0.9029175825571444,-25.6875,-68.375,141.8125,0.408203125,0.7236328125,0.74072265625
1969/12/31/18:00:11.229000,232,1730344609,202920958,RL_myo,-0.0866731239603763,0.256540239440466,0.3370485848656325,0.9017056762441124,-70.1875,-75.75,154.75,0.6953125,0.61328125,0.6845703125
1969/12/31/18:00:11.243000,233,1730344609,216994319,RL_myo,-0.1024805957334016,0.2783272879954208,0.3105546581843642,0.9030988055219836,-127.875,-65.75,161.9375,0.63525390625,0.55419921875,0.6337890625
1969/12/31/18:00:11.266000,234,1730344609,240126126,RL_myo,-0.113893691195454,0.3009698774302166,0.275700859126402,0.9057783372671696,-181.1875,-71.8125,153.75,0.55615234375,0.40673828125,0.55029296875
1969/12/31/18:00:11.289000,235,1730344609,262528694,RL_myo,-0.1264057100940366,0.3245288076146753,0.2461584880778607,0.9044935866168656,-144.6875,-85.375,153.375,0.94873046875,0.486328125,0.9619140625
1969/12/31/18:00:11.310000,236,1730344609,283715217,RL_myo,-0.1379419390117479,0.3283750583554001,0.2310222297165779,0.905411824469146,-40.6875,1.25,76.6875,1.19384765625,0.25732421875,1.39501953125
1969/12/31/18:00:11.326000,237,1730344609,300018390,RL_myo,-0.1461239130981438,0.3245366942117087,0.2456761696825517,0.9016468021243862,102.5,10.25,10.5625,0.72314453125,0.19775390625,0.92138671875
1969/12/31/18:00:11.349000,238,1730344609,322409808,RL_myo,-0.1532011797056783,0.3207458961567091,0.2596485332541656,0.8979054002590576,97.75,19.375,-0.0625,0.80078125,0.26611328125,0.6220703125
1969/12/31/18:00:11.370000,239,1730344609,343640548,RL_myo,-0.159917541119991,0.3164169973916159,0.2709442614624581,0.8949278579775988,84.3125,25.375,-0.375,0.64501953125,0.14404296875,0.4599609375
1969/12/31/18:00:11.386000,240,1730344609,359957217,RL_myo,-0.1651067251737051,0.3155644248236804,0.2752185670270744,0.8929801808840317,33.8125,12.75,15.8125,0.5205078125,0.2353515625,0.345703125
1969/12/31/18:00:11.409000,241,1730344609,382542941,RL_myo,-0.1689535518750582,0.3186800918857221,0.2746105599298724,0.8913398547801572,-0.5625,-6.125,27.6875,0.57177734375,0.34033203125,0.42529296875
1969/12/31/18:00:11.431000,242,1730344609,404950683,RL_myo,-0.1710271053755123,0.3234377699446252,0.2703351355132563,0.8905372831651409,-20.25,-17.25,24.6875,0.64794921875,0.3193359375,0.60595703125
1969/12/31/18:00:11.447000,243,1730344609,420578765,RL_myo,-0.1721317853975404,0.3258906390913009,0.267170505207459,0.8903852317708946,-7.4375,-12.125,8.75,0.67919921875,0.22265625,0.73681640625
1969/12/31/18:00:11.476000,244,1730344609,450135550,RL_myo,-0.1740176192489228,0.3256345137471075,0.268198323037449,0.8898031755211497,20.6875,-1.8125,-1.75,0.6806640625,0.16943359375,0.7294921875
1969/12/31/18:00:11.490000,245,1730344609,463689354,RL_myo,-0.1760349567669887,0.3246636390581183,0.2708277056779227,0.8889643239786491,25.8125,6.5,-3.125,0.70556640625,0.216796875,0.6259765625
1969/12/31/18:00:11.507000,246,1730344609,481169294,RL_myo,-0.1768280454941067,0.323564193705302,0.2722309571638647,0.8887791406419359,10.875,9.75,-3.75,0.67236328125,0.29443359375,0.53759765625
1969/12/31/18:00:11.507000,1,1730344616,265428590,RL_myo,-0.1383723371069221,0.3408341995611174,0.381424232281057,0.8480570144523935,108.625,3.5625,-64.8125,1.00732421875,0.5263671875,0.8369140625
1969/12/31/18:00:11.529000,2,1730344616,287957714,RL_myo,-0.1358110679210919,0.3230777449466694,0.41182798888252,0.8411740795598056,174.9375,44.5,-110.6875,1.33642578125,0.75048828125,0.81494140625
1969/12/31/18:00:11.544000,3,1730344616,303013297,RL_myo,-0.133914377252395,0.2951731669975307,0.4422714574160686,0.8362629365246421,174.6875,99.0,-127.3125,1.18212890625,1.30126953125,0.70556640625
1969/12/31/18:00:11.567000,4,1730344616,325496051,RL_myo,-0.1261048525809127,0.2609992011790816,0.4601057012366504,0.839213755147613,86.125,136.0,-151.5625,0.88671875,1.65966796875,0.63330078125
1969/12/31/18:00:11.589000,5,1730344616,347976917,RL_myo,-0.1107209793898151,0.2188173710653181,0.452955009951388,0.8571415179554429,-78.9375,193.375,-180.75,0.5087890625,1.5693359375,0.671875
1969/12/31/18:00:11.604000,6,1730344616,362890937,RL_myo,-0.0841727237997684,0.1762194732486812,0.4291038783991096,0.8818908727041728,-193.75,184.375,-219.5,0.07763671875,1.2685546875,0.52978515625
1969/12/31/18:00:11.627000,7,1730344616,385373164,RL_myo,-0.0548122512088913,0.1323917292562197,0.3914376024528063,0.9089800055710576,-270.9375,190.875,-224.0,-0.32275390625,0.734375,0.275390625
1969/12/31/18:00:11.649000,8,1730344616,408057307,RL_myo,-0.0261842052293159,0.0816654233026216,0.3745745162990951,0.92322211724623,-125.6875,214.75,-253.25,-0.056640625,0.3330078125,0.36767578125
1969/12/31/18:00:11.664000,9,1730344616,423094499,RL_myo,-0.0051270240902522,0.0264285884652287,0.3988092310203346,0.9166386641358104,142.5625,238.125,-238.3125,-0.19384765625,0.09619140625,0.21484375
1969/12/31/18:00:11.690000,10,1730344616,448449537,RL_myo,0.016418654623564,-0.0288089404547294,0.4444023208705199,0.8952134102744013,283.0625,230.5625,-239.0,-0.5986328125,0.64306640625,0.15234375
1969/12/31/18:00:11.709000,11,1730344616,468010998,RL_myo,0.0356461980996278,-0.0808143258286083,0.4817119784285327,0.871866941190213,244.25,220.0625,-220.75,-0.7392578125,1.18408203125,0.37060546875
1969/12/31/18:00:11.732000,12,1730344616,490513027,RL_myo,0.047303992653364,-0.1314745808714143,0.503070332192292,0.8528757281876846,152.875,231.25,-187.5625,-0.7109375,1.15478515625,0.52783203125
1969/12/31/18:00:11.747000,13,1730344616,505471418,RL_myo,0.0502953815993392,-0.1825038725510006,0.5122926429165712,0.8376866712006462,80.875,253.0,-153.25,-0.7724609375,0.8583984375,0.62890625
1969/12/31/18:00:11.769000,14,1730344616,528000258,RL_myo,0.0484034602120858,-0.2304810413125299,0.5200472648259414,0.8210276712645233,74.6875,254.75,-121.1875,-0.8486328125,0.61181640625,0.556640625
1969/12/31/18:00:11.787000,15,1730344616,545939975,RL_myo,0.0438257140667126,-0.2705230706736357,0.5299371163331466,0.8025354993720583,90.3125,229.3125,-81.6875,-0.8779296875,0.51513671875,0.5458984375
1969/12/31/18:00:11.807000,16,1730344616,565499864,RL_myo,0.0367446557917249,-0.2996947839491183,0.5428687186239224,0.7836621855647109,105.25,189.8125,-33.25,-0.8662109375,0.51318359375,0.6103515625
1969/12/31/18:00:11.830000,17,1730344616,588608045,RL_myo,0.0299076533952271,-0.3189132428368614,0.5563433891785631,0.7667345754098858,104.0625,141.625,-2.0625,-0.82373046875,0.474609375,0.54443359375
1969/12/31/18:00:11.844000,18,1730344616,602960704,RL_myo,0.0256356174524458,-0.3307605023209624,0.5655705507484846,0.7550299711589418,88.9375,97.375,19.0,-0.68408203125,0.4541015625,0.423828125
1969/12/31/18:00:11.867000,19,1730344616,625381759,RL_myo,0.0180058656262879,-0.3346649533184295,0.5719761585896412,0.7486777890577889,50.3125,62.375,49.1875,-0.61279296875,0.5078125,0.35888671875
1969/12/31/18:00:11.890000,20,1730344616,648583534,RL_myo,0.0063479299328357,-0.3292378274780385,0.5763798303439225,0.7478960141061191,13.75,25.3125,77.0625,-0.43408203125,0.70947265625,0.3349609375
1969/12/31/18:00:11.904000,21,1730344616,663027473,RL_myo,-0.0027466533548973,-0.3200766709573687,0.5874786342419287,0.7432443978352172,51.3125,2.8125,92.5,-0.34033203125,0.55810546875,0.154296875
1969/12/31/18:00:11.927000,22,1730344616,685421718,RL_myo,-0.0090944236202216,-0.3064637650814287,0.5995605585331356,0.739272878443789,60.75,-26.3125,99.75,-0.25390625,0.35498046875,0.16357421875
1969/12/31/18:00:11.958000,23,1730344616,716607429,RL_myo,-0.0158082176255333,-0.2872334831882615,0.6146894197171656,0.734441245899777,70.4375,-49.1875,120.125,-0.05712890625,0.33349609375,0.20947265625
1969/12/31/18:00:11.966000,24,1730344616,724512167,RL_myo,-0.0216685507430706,-0.2646615099209985,0.6358346284241334,0.7247062055562767,115.0,-58.875,136.6875,0.0673828125,0.34912109375,0.22509765625
1969/12/31/18:00:11.987000,25,1730344616,745539330,RL_myo,-0.0254530012282729,-0.241711954110218,0.661716993562847,0.7092658855456399,156.8125,-60.6875,137.0,0.1357421875,0.27392578125,0.1005859375
1969/12/31/18:00:12.010000,26,1730344616,768658488,RL_myo,-0.0297248380474184,-0.2182059466519938,0.687760729195711,0.691728110043929,162.4375,-59.3125,138.5625,0.26953125,0.42431640625,-0.05908203125
1969/12/31/18:00:12.024000,27,1730344616,783041267,RL_myo,-0.0351561226350541,-0.1954338622872278,0.713437356738103,0.6719946357846278,168.125,-49.375,137.8125,0.40380859375,0.63623046875,-0.1240234375
1969/12/31/18:00:12.047000,28,1730344616,805494349,RL_myo,-0.0415662339283117,-0.1751763456303298,0.7401353195517001,0.6479083306153139,187.875,-31.6875,133.8125,0.3876953125,0.6328125,-0.24462890625
1969/12/31/18:00:12.070000,29,1730344616,828565057,RL_myo,-0.0515164905913067,-0.1562585496608355,0.7623097760602244,0.6259497760827609,158.5,-13.4375,137.0,0.37744140625,0.646484375,-0.2978515625
1969/12/31/18:00:12.084000,30,1730344616,842965388,RL_myo,-0.0638472601517519,-0.1405128038903758,0.7778256559405121,0.6092347070503218,110.3125,5.6875,123.6875,0.43603515625,0.8173828125,-0.36474609375
1969/12/31/18:00:12.107000,31,1730344616,865457226,RL_myo,-0.0784947822935325,-0.128423811777288,0.790013971403726,0.5943263570700827,83.4375,22.4375,91.6875,0.388671875,0.927734375,-0.41064453125
1969/12/31/18:00:12.130000,32,1730344616,888575104,RL_myo,-0.0908838209336463,-0.1223788186514176,0.8000706009390435,0.5802159850874692,69.75,36.4375,68.375,0.22802734375,0.88916015625,-0.5361328125
1969/12/31/18:00:12.144000,33,1730344616,902949998,RL_myo,-0.1029084642247349,-0.1176183929780926,0.8077032663617542,0.568499072235576,49.375,41.1875,66.0625,0.14013671875,0.849609375,-0.58203125
1969/12/31/18:00:12.167000,34,1730344616,925501224,RL_myo,-0.1135275877323944,-0.1135886240698849,0.8144078511362038,0.5576279793135246,46.9375,38.0,57.6875,0.15478515625,0.92578125,-0.58544921875
1969/12/31/18:00:12.190000,35,1730344616,948639041,RL_myo,-0.1213407825190824,-0.1123684007130939,0.8182568060617802,0.5505502305443277,28.1875,33.0,31.4375,0.17578125,1.005859375,-0.56494140625
1969/12/31/18:00:12.204000,36,1730344616,962997752,RL_myo,-0.1264665348628984,-0.1134048367641241,0.8191027499324792,0.5479199244518529,2.5625,28.375,11.625,0.12890625,1.07861328125,-0.578125
1969/12/31/18:00:12.227000,37,1730344616,985396589,RL_myo,-0.1311071426239176,-0.1138947523911686,0.8202131203818458,0.5450590240370504,4.5,25.375,14.75,0.109375,1.052734375,-0.572265625
1969/12/31/18:00:12.242000,38,1730344617,638531,RL_myo,-0.1373334160107723,-0.112369252833703,0.8196058267522894,0.544755883509397,-12.3125,25.125,25.0,0.13671875,1.029296875,-0.5107421875
1969/12/31/18:00:12.266000,39,1730344617,24481313,RL_myo,-0.1433752829587372,-0.1105985579911587,0.8164883610638687,0.5482319248767039,-36.9375,23.3125,21.5625,0.13525390625,1.00634765625,-0.47314453125
1969/12/31/18:00:12.287000,40,1730344617,45517021,RL_myo,-0.1479492416228875,-0.1102295092289335,0.8142091102513697,0.5504761593221217,-26.75,22.8125,16.4375,0.0673828125,0.98388671875,-0.46044921875
1969/12/31/18:00:12.302000,41,1730344617,60483814,RL_myo,-0.1514278060597146,-0.1098629790034205,0.8150612342287097,0.5483383352037388,1.9375,19.5,22.75,0.00830078125,0.89453125,-0.46435546875
1969/12/31/18:00:12.324000,42,1730344617,83045871,RL_myo,-0.1545414583480048,-0.1090091013465784,0.8183006840725519,0.5427871994821514,27.3125,14.6875,23.3125,0.0849609375,0.87841796875,-0.4404296875
1969/12/31/18:00:12.347000,43,1730344617,105508291,RL_myo,-0.1558282914477732,-0.1106606707382737,0.8215623983106256,0.537128462491345,33.875,13.625,6.9375,0.08642578125,0.95556640625,-0.44091796875
1969/12/31/18:00:12.362000,44,1730344617,120522773,RL_myo,-0.1550348059302974,-0.1138346114409467,0.8261401961679432,0.529620870494957,49.875,10.8125,0.875,0.0185546875,1.037109375,-0.49365234375
1969/12/31/18:00:12.384000,45,1730344617,142955461,RL_myo,-0.154122243645528,-0.1142640950908627,0.8273770346990622,0.5278610546718916,11.75,2.5625,10.5,-0.0283203125,1.16552734375,-0.52587890625
1969/12/31/18:00:12.407000,46,1730344617,165531848,RL_myo,-0.1530253369253038,-0.1132277622642355,0.8259217526670468,0.5306750216308702,-17.125,-6.0,4.8125,0.05712890625,1.099609375,-0.45654296875
1969/12/31/18:00:12.422000,47,1730344617,180464083,RL_myo,-0.1527172529092515,-0.1103568318384998,0.8230983834857141,0.535731146596523,-41.0625,-9.3125,8.0625,0.11279296875,0.96728515625,-0.49560546875
1969/12/31/18:00:12.444000,48,1730344617,203003500,RL_myo,-0.153202789219972,-0.1080964700034145,0.8203978844245596,0.5401771651779892,-35.625,-4.625,6.75,0.14111328125,0.98486328125,-0.4580078125
1969/12/31/18:00:12.466000,49,1730344617,225339276,RL_myo,-0.1522911163613397,-0.1076109170922011,0.8219447586860925,0.5381766625081893,4.9375,-4.375,2.25,0.11767578125,0.82421875,-0.4833984375
1969/12/31/18:00:12.481000,50,1730344617,240423304,RL_myo,-0.151315477258539,-0.1062687559125116,0.8255513634214363,0.5331749470969498,27.3125,-6.8125,12.75,0.07080078125,0.7763671875,-0.43310546875
1969/12/31/18:00:12.504000,51,1730344617,262884532,RL_myo,-0.1495394171003806,-0.1042503364928368,0.8304015386329302,0.5265008211868912,39.375,-13.3125,13.875,0.11865234375,0.86572265625,-0.47802734375
1969/12/31/18:00:12.526000,52,1730344617,285381646,RL_myo,-0.1498476172371586,-0.1027875305203157,0.8354233552443953,0.518698595226629,48.25,-3.75,14.1875,0.189453125,0.8447265625,-0.4345703125
1969/12/31/18:00:12.543000,53,1730344617,301885436,RL_myo,-0.1506403065265008,-0.102848021271132,0.839630492941064,0.5116154980977027,47.8125,4.0625,10.3125,0.16455078125,0.95849609375,-0.43798828125
1969/12/31/18:00:12.564000,54,1730344617,322760465,RL_myo,-0.1496610652373164,-0.104738331136719,0.8437050998268456,0.5047703953966587,42.9375,5.5625,3.5,0.048828125,1.01513671875,-0.57666015625
1969/12/31/18:00:12.587000,55,1730344617,345456339,RL_myo,-0.1473435523766534,-0.1060824747434232,0.8469507592288495,0.4997107138805557,37.125,-2.875,1.625,0.0224609375,0.96826171875,-0.4931640625
1969/12/31/18:00:12.603000,56,1730344617,361999493,RL_myo,-0.1455733583314977,-0.1047395735416562,0.8485370346014595,0.4978181595604592,10.3125,-9.1875,9.1875,0.068359375,0.9375,-0.54541015625
1969/12/31/18:00:12.624000,57,1730344617,382986682,RL_myo,-0.1436821080790873,-0.1025428808720759,0.8495189380818767,0.4971498599422967,2.8125,-14.0625,9.0625,0.095703125,0.8701171875,-0.50732421875
1969/12/31/18:00:12.647000,58,1730344617,405533867,RL_myo,-0.1422801064573258,-0.0999195771216827,0.8503845745017004,0.4966070124997009,-4.625,-14.5,7.75,0.1650390625,0.8154296875,-0.56884765625
1969/12/31/18:00:12.663000,59,1730344617,421943513,RL_myo,-0.1411770023323949,-0.0966204905716304,0.8514566288529654,0.4957369705766154,1.75,-15.125,13.3125,0.15478515625,0.84619140625,-0.509765625
1969/12/31/18:00:12.686000,60,1730344617,444548374,RL_myo,-0.1397730868402352,-0.0936906935806816,0.8530430837026757,0.493966633972936,7.8125,-15.8125,10.625,0.17529296875,0.8671875,-0.5322265625
1969/12/31/18:00:12.707000,61,1730344617,465539235,RL_myo,-0.1392838145812772,-0.0923472442863595,0.8533422487558445,0.4938410796569299,-0.5625,-8.0,2.4375,0.20361328125,0.9072265625,-0.51708984375
1969/12/31/18:00:12.724000,62,1730344617,483402336,RL_myo,-0.1397164892234935,-0.0910079883932848,0.853192261409346,0.4942264802283213,-6.8125,-1.0,7.5625,0.15380859375,0.91162109375,-0.5478515625
1969/12/31/18:00:12.747000,63,1730344617,505855467,RL_myo,-0.1402019474590995,-0.0886256977407977,0.8526256003727302,0.4954982191871875,-14.5,-1.25,16.5625,0.07861328125,0.9169921875,-0.5693359375
1969/12/31/18:00:12.767000,64,1730344617,525580165,RL_myo,-0.139226105255628,-0.0860015704976676,0.8511652949538504,0.4987358641138696,-24.75,-9.625,12.0625,0.0751953125,0.93310546875,-0.5458984375
1969/12/31/18:00:12.785000,65,1730344617,543468725,RL_myo,-0.1373314802655854,-0.0839858297090869,0.8493799463892832,0.5026332177720427,-26.0625,-13.75,3.0625,0.10986328125,0.8916015625,-0.482421875
1969/12/31/18:00:12.807000,66,1730344617,565908786,RL_myo,-0.13611314511809,-0.0822172226341109,0.8481130723837943,0.5053887181963164,-18.8125,-9.1875,6.125,0.08203125,0.88916015625,-0.47021484375
1969/12/31/18:00:12.827000,67,1730344617,585519985,RL_myo,-0.1357488988644301,-0.0801431223961316,0.8476371216413405,0.5066168437836197,-10.3125,-6.1875,10.8125,0.10498046875,0.90185546875,-0.48486328125
1969/12/31/18:00:12.845000,68,1730344617,603393918,RL_myo,-0.1358694209246404,-0.0789214560896496,0.8472612002942203,0.5074045355554969,-6.25,-2.9375,5.5625,0.154296875,0.91259765625,-0.46875
1969/12/31/18:00:12.867000,69,1730344617,625933646,RL_myo,-0.1362364005207852,-0.0786167042431771,0.8467165537743427,0.5082618759572486,-6.875,0.625,0.8125,0.1669921875,0.9072265625,-0.47021484375
1969/12/31/18:00:12.887000,70,1730344617,645354577,RL_myo,-0.1369070090461915,-0.078311053324237,0.8470777849055046,0.5075264289875537,-2.0625,3.4375,4.125,0.13916015625,0.818359375,-0.51318359375
1969/12/31/18:00:12.905000,71,1730344617,663419038,RL_myo,-0.138489976004584,-0.0774542880342957,0.8474194917794817,0.5066572458413625,-2.125,4.8125,6.4375,0.19970703125,0.84033203125,-0.52392578125
1969/12/31/18:00:12.927000,72,1730344617,685886597,RL_myo,-0.1395936087405661,-0.0779453600182348,0.8475108252570008,0.5061260182233382,-1.0625,6.8125,-0.125,0.193359375,0.9345703125,-0.54248046875
1969/12/31/18:00:12.947000,73,1730344617,705513442,RL_myo,-0.1386791962190176,-0.0795940457172531,0.8473958103471049,0.506313350632373,-6.1875,3.875,-6.1875,0.08544921875,0.90625,-0.56591796875
1969/12/31/18:00:12.965000,74,1730344617,723809757,RL_myo,-0.1366631873772063,-0.0815462341830941,0.8465915180535295,0.5078938732316812,-13.6875,1.375,-8.0625,0.01123046875,0.92822265625,-0.56884765625
1969/12/31/18:00:12.987000,75,1730344617,746035259,RL_myo,-0.1359299540099253,-0.0833768824326708,0.8446944919368462,0.5109428132092881,-23.9375,4.0625,-11.4375,0.10888671875,0.9453125,-0.5546875
1969/12/31/18:00:13.007000,76,1730344617,766148891,RL_myo,-0.1362964902973467,-0.0850861206782361,0.8433536078989876,0.5127751074733585,-19.5,8.0625,-9.9375,0.14892578125,0.89794921875,-0.56787109375
1969/12/31/18:00:13.032000,77,1730344617,790925784,RL_myo,-0.1347070440307259,-0.0871597910629255,0.8423615381368592,0.5144747050906157,-16.5625,1.5,-12.125,0.0849609375,0.9755859375,-0.60009765625
1969/12/31/18:00:13.047000,78,1730344617,805922831,RL_myo,-0.1307422223078957,-0.0899081668812,0.8416454264255718,0.5161937320531628,-15.125,-6.8125,-20.0,0.04443359375,1.06298828125,-0.65283203125
1969/12/31/18:00:13.067000,79,1730344617,825508322,RL_myo,-0.1264054748740826,-0.0918591210456274,0.8400379288710768,0.5195380985650371,-21.9375,-13.875,-23.4375,0.1142578125,1.126953125,-0.61572265625
1969/12/31/18:00:13.085000,80,1730344617,843468598,RL_myo,-0.1220744538674918,-0.0930817710739625,0.838224237481133,0.5232721465030039,-20.75,-18.0,-22.9375,0.13818359375,1.13427734375,-0.5390625
1969/12/31/18:00:13.107000,81,1730344617,865907375,RL_myo,-0.1161535710975734,-0.0947295545682785,0.8371236088298584,0.5260786281082427,-13.8125,-22.9375,-25.375,0.07470703125,1.13623046875,-0.55029296875
1969/12/31/18:00:13.127000,82,1730344617,886142444,RL_myo,-0.1087105331631193,-0.0971131152512761,0.8374556513183588,0.5267058903226033,1.8125,-27.875,-32.1875,0.06298828125,1.09814453125,-0.53857421875
1969/12/31/18:00:13.144000,83,1730344617,902573595,RL_myo,-0.1008943842635011,-0.0997957158323196,0.8388943843421411,0.5254686957800854,16.25,-30.3125,-36.3125,0.10400390625,1.07275390625,-0.50927734375
1969/12/31/18:00:13.166000,84,1730344617,925071844,RL_myo,-0.0922270021647455,-0.1024201916826227,0.8412128020082877,0.5228434814978227,26.5625,-34.125,-37.1875,0.0732421875,1.0712890625,-0.5107421875
1969/12/31/18:00:13.187000,85,1730344617,946009594,RL_myo,-0.0814859376323396,-0.1054128946000378,0.844096652822191,0.5193736654034293,31.4375,-41.1875,-40.1875,-0.009765625,1.05419921875,-0.55810546875
1969/12/31/18:00:13.204000,86,1730344617,962599127,RL_myo,-0.0703144882979602,-0.1080963183816732,0.8470088143322866,0.5157006177339115,32.5,-45.375,-43.375,0.0146484375,0.99462890625,-0.5400390625
1969/12/31/18:00:13.226000,87,1730344617,984909932,RL_myo,-0.0601806880508918,-0.110290571306249,0.8495486784790707,0.5123293057801077,32.0625,-44.5,-43.625,0.08251953125,0.93896484375,-0.482421875
1969/12/31/18:00:13.248000,88,1730344618,6203131,RL_myo,-0.0495626157548303,-0.113102865755789,0.8519032365642456,0.5089323770489848,31.3125,-44.0625,-45.375,0.0224609375,0.91357421875,-0.49169921875
1969/12/31/18:00:13.264000,89,1730344618,22588244,RL_myo,-0.038697178889375,-0.1154201345107384,0.8540845807555593,0.5056878976316592,29.875,-44.9375,-40.9375,-0.05029296875,0.857421875,-0.47900390625
1969/12/31/18:00:13.294000,90,1730344618,52604918,RL_myo,-0.0285044501815918,-0.117069669054161,0.8551945428143116,0.5041076103849403,20.875,-44.6875,-37.4375,-0.05126953125,0.85498046875,-0.43115234375
1969/12/31/18:00:13.307000,91,1730344618,66181727,RL_myo,-0.0184328892515829,-0.1190203113926716,0.8556034487704978,0.5034253991624387,16.0625,-43.625,-39.25,-0.068359375,0.84228515625,-0.4052734375
1969/12/31/18:00:13.324000,92,1730344618,82610542,RL_myo,-0.0080566706835133,-0.1212773079404625,0.8555940124355328,0.5031757054157892,9.9375,-43.125,-39.4375,-0.12158203125,0.775390625,-0.42138671875
1969/12/31/18:00:13.354000,93,1730344618,112618668,RL_myo,0.0012207896248656,-0.1225062388552723,0.8556514480683646,0.5028432464821792,10.0,-40.875,-32.1875,-0.1201171875,0.74169921875,-0.39697265625
1969/12/31/18:00:13.367000,94,1730344618,126174296,RL_myo,0.0090334162967305,-0.1226225225684578,0.8562824136948207,0.5016597874515455,13.5625,-37.1875,-22.3125,-0.1162109375,0.69921875,-0.39501953125
1969/12/31/18:00:13.384000,95,1730344618,142567568,RL_myo,0.0169072902239956,-0.1222574090926471,0.8578160895596917,0.4989176544799288,23.5,-36.5625,-17.9375,-0.158203125,0.7021484375,-0.41455078125
1969/12/31/18:00:13.406000,96,1730344618,164956428,RL_myo,0.024476138323938,-0.1221975783653964,0.8589842758922202,0.4966031456447881,21.375,-33.6875,-18.5,-0.18212890625,0.73876953125,-0.41796875
1969/12/31/18:00:13.444000,97,1730344618,203127709,RL_myo,0.0308853905830442,-0.1217104126928661,0.8597247556564795,0.4950818241483639,16.0,-30.5,-13.8125,-0.18212890625,0.74462890625,-0.41259765625
1969/12/31/18:00:13.447000,98,1730344618,205516096,RL_myo,0.0355847918610308,-0.1198163746538654,0.860199779927114,0.4944027685666376,9.1875,-28.125,-4.375,-0.14501953125,0.7216796875,-0.42333984375
1969/12/31/18:00:13.466000,99,1730344618,225077361,RL_myo,0.038698202500459,-0.1177426382072325,0.8609434483737766,0.4933715627937068,8.125,-21.25,0.6875,-0.14599609375,0.73291015625,-0.46826171875
1969/12/31/18:00:13.487000,100,1730344618,246152951,RL_myo,0.0416881182483754,-0.1163360957267988,0.8618392820894016,0.4918953806202895,10.9375,-16.6875,0.8125,-0.20068359375,0.74365234375,-0.47509765625
1969/12/31/18:00:13.504000,101,1730344618,262614489,RL_myo,0.0443121017005484,-0.1148696630859946,0.8627431922000716,0.4904238803910559,12.25,-14.3125,2.4375,-0.2099609375,0.7607421875,-0.462890625
1969/12/31/18:00:13.526000,102,1730344618,285114090,RL_myo,0.0464496140186627,-0.113285786621075,0.8635599725834966,0.4891553308088875,11.0,-12.5,4.5,-0.2216796875,0.78466796875,-0.4794921875
1969/12/31/18:00:13.548000,103,1730344618,306209011,RL_myo,0.0470593643852168,-0.1110869561363096,0.8644030070342948,0.4881112023198175,8.25,-8.8125,8.75,-0.1650390625,0.7734375,-0.4794921875
1969/12/31/18:00:13.564000,104,1730344618,322701523,RL_myo,0.0469973210258156,-0.1087652286597448,0.8653610616935257,0.4869410742129318,10.25,-4.6875,12.1875,-0.1787109375,0.78125,-0.4716796875
1969/12/31/18:00:13.586000,105,1730344618,345058473,RL_myo,0.0474258736465617,-0.1067539935750792,0.8663004178451109,0.4856726854642111,9.6875,-4.5625,12.25,-0.234375,0.787109375,-0.49755859375
1969/12/31/18:00:13.608000,106,1730344618,366222683,RL_myo,0.0479754399091335,-0.1044350861126304,0.8670980907750021,0.4846984329751014,7.6875,-6.75,12.8125,-0.22900390625,0.833984375,-0.52734375
1969/12/31/18:00:13.624000,107,1730344618,382653649,RL_myo,0.0473038073442773,-0.10119962913137,0.8678264939624966,0.4841468385223325,4.4375,-6.25,16.75,-0.15380859375,0.80419921875,-0.52197265625
1969/12/31/18:00:13.646000,108,1730344618,405063536,RL_myo,0.0457786684110327,-0.0976001210523218,0.8684518588695654,0.4839110442168903,2.875,-3.4375,20.625,-0.12890625,0.79052734375,-0.50634765625
1969/12/31/18:00:13.667000,109,1730344618,426221887,RL_myo,0.0448622579212291,-0.09497370520467,0.8685577281892386,0.4843292742924531,0.0,-1.5,17.125,-0.20166015625,0.8427734375,-0.50732421875
1969/12/31/18:00:13.683000,110,1730344618,442052362,RL_myo,0.0444360175270399,-0.092595382676538,0.8684555733169299,0.4850118066893678,-2.5625,-2.875,16.125,-0.21875,0.84375,-0.51708984375
1969/12/31/18:00:13.713000,111,1730344618,471335705,RL_myo,0.0429699316133234,-0.0894799996379719,0.8682489732947819,0.4860973513757218,-5.625,-2.375,19.3125,-0.1484375,0.81689453125,-0.505859375
1969/12/31/18:00:13.727000,112,1730344618,486281044,RL_myo,0.0402243615700781,-0.086003225268953,0.8682114096703966,0.4870260712710977,-4.25,1.125,21.0,-0.08642578125,0.83837890625,-0.5
1969/12/31/18:00:13.743000,113,1730344618,502060560,RL_myo,0.0382098468541967,-0.0833780364262504,0.8683889635697397,0.4873281426260492,2.1875,3.75,19.8125,-0.166015625,0.8662109375,-0.47998046875
1969/12/31/18:00:13.766000,114,1730344618,525089107,RL_myo,0.0369886677661666,-0.0816680486322294,0.8681960566104865,0.488055094815625,-3.0,3.75,16.1875,-0.22509765625,0.89208984375,-0.52783203125
1969/12/31/18:00:13.796000,115,1730344618,554984822,RL_myo,0.0349732794422682,-0.0793460092058442,0.8676791283617556,0.4895038414083624,-5.625,3.1875,17.125,-0.14501953125,0.88671875,-0.48486328125
1969/12/31/18:00:13.803000,116,1730344618,561925564,RL_myo,0.0314336093511624,-0.076417240597389,0.8673845096880957,0.4907305226861085,-6.875,6.5625,20.25,-0.05322265625,0.82373046875,-0.4853515625
1969/12/31/18:00:13.826000,117,1730344618,585188002,RL_myo,0.0282597833568781,-0.0742811152166753,0.8672640641854888,0.4914638781632455,-3.375,9.375,19.0,-0.12158203125,0.9013671875,-0.51708984375
1969/12/31/18:00:13.849000,118,1730344618,608035237,RL_myo,0.0260010394740684,-0.0728761528921073,0.8672506335376499,0.4918224790658303,-1.3125,8.375,15.4375,-0.15869140625,0.8994140625,-0.5263671875
1969/12/31/18:00:13.863000,119,1730344618,621954746,RL_myo,0.022523569837553,-0.071049960137972,0.8668217215801902,0.4930159175553268,-6.0,10.125,16.4375,-0.07275390625,0.89990234375,-0.5009765625
1969/12/31/18:00:13.886000,120,1730344618,645179894,RL_myo,0.0189222868441556,-0.0689747875286963,0.8665186581923664,0.4939937659024247,-5.8125,10.75,18.5,-0.07275390625,0.876953125,-0.5048828125
1969/12/31/18:00:13.909000,121,1730344618,667579567,RL_myo,0.0160525409422069,-0.0670788688041272,0.8657995941642808,0.4956145720559718,-9.875,8.6875,18.25,-0.11083984375,0.892578125,-0.51025390625
1969/12/31/18:00:13.930000,122,1730344618,688702568,RL_myo,0.0121466032004898,-0.0647615376669335,0.8651555465514764,0.4971561963215589,-11.875,9.875,18.5625,-0.02978515625,0.8701171875,-0.5322265625
1969/12/31/18:00:13.946000,123,1730344618,705143878,RL_myo,0.0073242685044146,-0.062073175574914,0.8647519680878883,0.4982944005836759,-6.6875,13.4375,22.6875,-0.00244140625,0.87109375,-0.48095703125
1969/12/31/18:00:13.969000,124,1730344618,727617797,RL_myo,0.0025025367044555,-0.0591453186979868,0.865572512338649,0.497272354419503,5.5,15.3125,27.75,-0.044921875,0.83447265625,-0.4970703125
1969/12/31/18:00:13.991000,125,1730344618,750033923,RL_myo,-0.0018922045628374,-0.056460942600795,0.8674231949188093,0.4943537017555018,17.5625,14.125,24.5,-0.02490234375,0.86572265625,-0.5263671875
1969/12/31/18:00:14.014000,126,1730344618,772605280,RL_myo,-0.0066530481187329,-0.0539568306143111,0.8692298922832636,0.4914100037056776,17.8125,14.5,21.4375,0.04052734375,0.89599609375,-0.546875
1969/12/31/18:00:14.029000,127,1730344618,787595708,RL_myo,-0.0114141339996894,-0.0509668550253513,0.8705260914629479,0.4893428463931042,11.25,13.125,24.5,0.0390625,0.890625,-0.55908203125
1969/12/31/18:00:14.050000,128,1730344618,808778507,RL_myo,-0.0151984446974047,-0.0477316616601225,0.8705840028878872,0.4894631647730468,-1.125,8.4375,24.9375,0.009765625,0.93115234375,-0.5546875
1969/12/31/18:00:14.072000,129,1730344618,831115242,RL_myo,-0.0184330252194707,-0.0449228694090412,0.8694040106825872,0.4917101032054846,-15.875,5.875,19.3125,0.03466796875,0.94384765625,-0.57373046875
1969/12/31/18:00:14.089000,130,1730344618,847542304,RL_myo,-0.0217897169024706,-0.042541828238157,0.8676823963179922,0.4948157841129686,-18.0,6.8125,16.0625,0.0703125,0.9521484375,-0.50634765625
1969/12/31/18:00:14.110000,131,1730344618,868741724,RL_myo,-0.0249637229049476,-0.0408941182061488,0.8658566580185495,0.4979927021551772,-20.625,8.875,13.6875,0.0458984375,0.9189453125,-0.51123046875
1969/12/31/18:00:14.126000,132,1730344618,885107720,RL_myo,-0.0280168084748461,-0.0390037921904721,0.8646756184197626,0.5000298366578212,-12.4375,8.75,16.3125,0.0302734375,0.92041015625,-0.4951171875
1969/12/31/18:00:14.149000,133,1730344618,907565070,RL_myo,-0.0317386193464153,-0.0369266628934255,0.8645111623512048,0.5002494695446537,-2.875,10.1875,17.3125,0.0751953125,0.8740234375,-0.50439453125
1969/12/31/18:00:14.170000,134,1730344618,928806996,RL_myo,-0.0354626925293376,-0.0349743938370231,0.864899058761986,0.4994685249011525,4.375,11.8125,18.5,0.0634765625,0.92724609375,-0.52392578125
1969/12/31/18:00:14.186000,135,1730344618,945137555,RL_myo,-0.038574577286905,-0.033508612231821,0.8649372385011581,0.4992722186817778,2.4375,9.9375,14.25,0.06689453125,0.9716796875,-0.521484375
1969/12/31/18:00:14.209000,136,1730344618,967563313,RL_myo,-0.0417490039223442,-0.0321052281625044,0.8645217712808243,0.4998283525147324,-5.3125,10.6875,13.4375,0.0791015625,0.9462890625,-0.5498046875
1969/12/31/18:00:14.230000,137,1730344618,988657986,RL_myo,-0.0457785681244483,-0.0302748930529685,0.8638110614629247,0.5008175352814653,-8.5,11.875,15.5625,0.12939453125,0.9052734375,-0.52001953125
1969/12/31/18:00:14.246000,138,1730344619,5088806,RL_myo,-0.0499296679065349,-0.029115466493175,0.8626601424487265,0.5024706921841022,-12.4375,14.875,12.8125,0.12548828125,0.9296875,-0.52197265625
1969/12/31/18:00:14.269000,139,1730344619,27608572,RL_myo,-0.0524919016400763,-0.0288095088071116,0.8615996320364163,0.5040443299345938,-10.9375,12.4375,9.125,0.0517578125,0.962890625,-0.5322265625
1969/12/31/18:00:14.290000,140,1730344619,48707550,RL_myo,-0.0536526895290709,-0.0287490520684783,0.8600910672970868,0.5064960383529363,-15.5,7.625,6.75,0.009765625,0.99169921875,-0.52490234375
1969/12/31/18:00:14.306000,141,1730344619,65034440,RL_myo,-0.0549942588312707,-0.0280159431781945,0.8586672954920276,0.5088037087874283,-16.375,5.125,7.6875,0.0517578125,0.94189453125,-0.51806640625
1969/12/31/18:00:14.329000,142,1730344619,87590825,RL_myo,-0.0573127975359463,-0.0269168729641665,0.8570674153352066,0.5112985143329316,-16.375,6.8125,8.1875,0.11669921875,0.92578125,-0.47509765625
1969/12/31/18:00:14.350000,143,1730344619,108689517,RL_myo,-0.059268147281234,-0.0268568329595705,0.8559394740728573,0.5129655095277967,-11.375,8.875,4.75,0.087890625,0.916015625,-0.47802734375
1969/12/31/18:00:14.366000,144,1730344619,125135638,RL_myo,-0.0602451949427218,-0.0271011819195223,0.8563729331776981,0.5121146763621445,5.0625,7.0,4.5625,0.03759765625,0.91552734375,-0.4912109375
1969/12/31/18:00:14.389000,145,1730344619,147566951,RL_myo,-0.0607330124952534,-0.0273451151737422,0.8570984537269833,0.5108287251987697,7.25,4.125,2.75,0.04931640625,0.951171875,-0.52490234375
1969/12/31/18:00:14.410000,146,1730344619,168733075,RL_myo,-0.0615246038946402,-0.0269780505172926,0.8574991667815489,0.5100804709796715,1.9375,3.375,4.6875,0.08056640625,0.94775390625,-0.5517578125
1969/12/31/18:00:14.426000,147,1730344619,185167139,RL_myo,-0.0635397055389856,-0.0255745788864889,0.857572394642409,0.509782536658605,-4.0625,4.625,10.25,0.125,0.87158203125,-0.546875
1969/12/31/18:00:14.449000,148,1730344619,207613431,RL_myo,-0.0653708083082343,-0.0239876075304725,0.8580605258610262,0.5088058431908887,-3.6875,4.4375,11.8125,0.1201171875,0.9306640625,-0.65380859375
1969/12/31/18:00:14.470000,149,1730344619,228696446,RL_myo,-0.0648812032767217,-0.0244143756450505,0.8566394054457098,0.5112370260073578,-2.9375,-4.3125,-8.0,0.1787109375,1.27685546875,-0.470703125
1969/12/31/18:00:14.486000,150,1730344619,245036357,RL_myo,-0.0637850807028004,-0.0253309172169016,0.8560629252217952,0.5122949113288076,-10.0,-3.875,-11.8125,0.12939453125,0.77734375,-0.4736328125
1969/12/31/18:00:14.509000,151,1730344619,267546465,RL_myo,-0.0673861456724919,-0.023499697539773,0.8555110667985939,0.5128427499459036,-1.9375,12.375,20.0,0.08447265625,0.919921875,-0.427734375
1969/12/31/18:00:14.530000,152,1730344619,288831103,RL_myo,-0.0687881240500324,-0.02539117977357,0.8557926240510245,0.5120961497602237,8.5,11.1875,-6.375,0.1171875,0.91552734375,-0.423828125
1969/12/31/18:00:14.552000,153,1730344619,311134088,RL_myo,-0.0687914060391991,-0.0282002037179325,0.8563828098757442,0.5109608340320637,13.375,8.0625,-12.0625,0.076171875,0.88525390625,-0.3916015625
1969/12/31/18:00:14.569000,154,1730344619,327463025,RL_myo,-0.0673223247065059,-0.0293581488520665,0.8568795254348474,0.5102580548924656,12.5,-0.125,-1.125,-0.0419921875,0.9970703125,-0.42138671875
1969/12/31/18:00:14.590000,155,1730344619,348663656,RL_myo,-0.0657991283517134,-0.0291151987233463,0.8555717830296545,0.5126594425102424,-5.125,-6.4375,0.4375,0.017578125,1.00634765625,-0.36669921875
1969/12/31/18:00:14.606000,156,1730344619,365171820,RL_myo,-0.0664706907973812,-0.0284438401391915,0.8537424721606712,0.5156514195190784,-12.8125,0.4375,2.875,0.10498046875,0.99267578125,-0.3935546875
1969/12/31/18:00:14.629000,157,1730344619,387591259,RL_myo,-0.0672643573916072,-0.0278945656333616,0.8534394238198301,0.5160799834356075,-2.125,3.0,6.625,0.05908203125,0.93505859375,-0.4638671875
1969/12/31/18:00:14.657000,158,1730344619,416183492,RL_myo,-0.0671434987882907,-0.0269184390596692,0.8542484232201168,0.5148075170731308,5.125,-3.125,5.125,0.09228515625,0.94091796875,-0.5390625
1969/12/31/18:00:14.666000,159,1730344619,424903608,RL_myo,-0.0676897965744695,-0.0260627079687091,0.85439294179389,0.5145401128248673,-5.125,-3.0625,-1.625,0.21630859375,0.94970703125,-0.599609375
1969/12/31/18:00:14.689000,160,1730344619,447462695,RL_myo,-0.0692151534669153,-0.025818350896389,0.8522497247429798,0.5178929251911611,-32.875,0.25,-10.9375,0.33251953125,0.908203125,-0.62109375
1969/12/31/18:00:14.711000,161,1730344619,470118437,RL_myo,-0.0715965717018197,-0.0271615297590023,0.846829357025615,0.5263233058693872,-73.0625,7.3125,-24.9375,0.43505859375,0.953125,-0.71533203125
1969/12/31/18:00:14.726000,162,1730344619,484377796,RL_myo,-0.0690932261893658,-0.0352790501214253,0.83674826663429,0.5420644362082668,-106.8125,11.4375,-61.625,0.52587890625,1.09033203125,-0.71337890625
1969/12/31/18:00:14.749000,163,1730344619,507615539,RL_myo,-0.0621358944721639,-0.0509050451766058,0.8210727430643905,0.5651436610194166,-154.625,13.4375,-117.0625,0.56884765625,1.2333984375,-0.6259765625
1969/12/31/18:00:14.779000,164,1730344619,537620771,RL_myo,-0.0524320140176261,-0.0729409275332517,0.7986878968808365,0.5950026456854715,-204.375,21.0,-164.1875,0.69677734375,1.13916015625,-0.44677734375
1969/12/31/18:00:14.786000,165,1730344619,544405110,RL_myo,-0.0445582684777113,-0.0996151974734587,0.7713463544559425,0.6269897723329462,-231.5,46.1875,-184.0,0.78271484375,0.85498046875,-0.34228515625
1969/12/31/18:00:14.809000,166,1730344619,567645524,RL_myo,-0.0388806491703429,-0.1301921894510857,0.7420283390327469,0.6564542885824787,-227.0625,73.0,-193.625,0.73583984375,0.66748046875,-0.20947265625
1969/12/31/18:00:14.831000,167,1730344619,590052830,RL_myo,-0.0327763022339853,-0.164186690892776,0.7154633422472566,0.6782924520042453,-181.75,90.125,-203.875,0.56787109375,0.55712890625,-0.08056640625
1969/12/31/18:00:14.846000,168,1730344619,604936309,RL_myo,-0.0241702949192547,-0.2000152940666607,0.6930648959801442,0.69214935450593,-129.0625,94.875,-211.5625,0.34765625,0.4306640625,-0.0078125
1969/12/31/18:00:14.869000,169,1730344619,627629409,RL_myo,-0.0125122626392636,-0.234986395908122,0.676516678505357,0.6978180427058595,-69.3125,88.125,-209.5625,0.1484375,0.36376953125,0.04150390625
1969/12/31/18:00:14.892000,170,1730344619,650230188,RL_myo,0.0023193767678416,-0.2671555819169226,0.6630976106797916,0.6992310592735357,-35.4375,70.8125,-204.4375,-0.041015625,0.40625,0.083984375
1969/12/31/18:00:14.906000,171,1730344619,664925809,RL_myo,0.0206910103879006,-0.2938245545939644,0.6517973449333083,0.698855660594286,-13.6875,38.6875,-192.625,-0.18896484375,0.44091796875,0.14501953125
1969/12/31/18:00:14.929000,172,1730344619,687594845,RL_myo,0.0409559679813866,-0.3140364459973682,0.639975147965482,0.7000967999202746,-17.4375,3.25,-176.4375,-0.24365234375,0.4130859375,0.19140625
1969/12/31/18:00:14.951000,173,1730344619,710216636,RL_myo,0.0596334405858169,-0.3288689640495206,0.625876458308052,0.7046756106072226,-39.8125,-18.4375,-152.75,-0.31298828125,0.39111328125,0.2275390625
1969/12/31/18:00:14.973000,174,1730344619,731316001,RL_myo,0.0736107630871439,-0.3383287394627188,0.6107373925787415,0.7121200438952805,-60.75,-28.875,-113.625,-0.4658203125,0.36669921875,0.27685546875
1969/12/31/18:00:14.989000,175,1730344619,747688140,RL_myo,0.0851475858433987,-0.341383833420881,0.593286404586262,0.724029149300642,-74.1875,-46.8125,-65.3125,-0.62548828125,0.34033203125,0.345703125
1969/12/31/18:00:15.011000,176,1730344619,770024627,RL_myo,0.0967444993756617,-0.3360726899447276,0.5768657814507122,0.7381879971288661,-71.3125,-85.0625,-29.3125,-0.72900390625,0.33154296875,0.40771484375
1969/12/31/18:00:15.032000,177,1730344619,791200565,RL_myo,0.107671310165532,-0.3199620226120856,0.5611848218037991,0.7557134303625013,-90.1875,-144.875,-6.4375,-0.8017578125,0.37255859375,0.4033203125
1969/12/31/18:00:15.049000,178,1730344619,808051982,RL_myo,0.1142022473121368,-0.2960957251262297,0.5415298440156483,0.7784796698123961,-128.4375,-177.0625,31.625,-0.8173828125,0.58154296875,0.43115234375
1969/12/31/18:00:15.071000,179,1730344619,830043014,RL_myo,0.1137142059780902,-0.2629526566578705,0.5258442750946041,0.8008824995375856,-116.25,-195.875,100.625,-1.02001953125,0.677734375,0.48095703125
1969/12/31/18:00:15.100000,180,1730344619,858646446,RL_myo,0.109136658376139,-0.2185174703504349,0.5081446761640701,0.8259105841652892,-132.0,-241.625,153.1875,-1.00927734375,0.67041015625,0.5341796875
1969/12/31/18:00:15.109000,181,1730344619,867547972,RL_myo,0.1049243874498323,-0.1680987568567995,0.4837874897774121,0.8524572397465731,-165.3125,-277.9375,159.3125,-0.794921875,0.72021484375,0.5458984375
1969/12/31/18:00:15.131000,182,1730344619,890097837,RL_myo,0.0997955271483545,-0.117069003712871,0.4586321657447929,0.8752098249420528,-160.125,-277.0625,163.4375,-0.78125,0.7138671875,0.54541015625
1969/12/31/18:00:15.152000,183,1730344619,911206913,RL_myo,0.0939384801255574,-0.0652503153048868,0.4344120617632177,0.8934226988939465,-144.1875,-278.3125,169.125,-0.892578125,0.744140625,0.60498046875
1969/12/31/18:00:15.169000,184,1730344619,927635209,RL_myo,0.0881367258060882,-0.0133059599901158,0.4107757373095387,0.9073688129039528,-130.875,-277.0625,166.1875,-0.72802734375,0.7578125,0.6328125
1969/12/31/18:00:15.191000,185,1730344619,950048450,RL_myo,0.0786173661954817,0.0354022301190834,0.389363492982126,0.9170398367398436,-111.4375,-248.3125,173.9375,-0.48046875,0.74853515625,0.65869140625
1969/12/31/18:00:15.212000,186,1730344619,971153900,RL_myo,0.0645773183710976,0.0792872746352134,0.3711059505635857,0.9229429405381546,-87.375,-213.375,185.0625,-0.45458984375,0.78125,0.73583984375
1969/12/31/18:00:15.236000,187,1730344619,995125694,RL_myo,0.0498072278803122,0.1200622760301153,0.3569517998089043,0.925034973683985,-58.3125,-196.9375,180.0,-0.4453125,0.77978515625,0.76904296875
1969/12/31/18:00:15.252000,188,1730344620,10862675,RL_myo,0.0361344335924005,0.1575388059155165,0.3502964770047073,0.9225877766032672,-10.375,-181.0625,159.375,-0.263671875,0.70947265625,0.74462890625
1969/12/31/18:00:15.272000,189,1730344620,31237121,RL_myo,0.0214855584631634,0.1901960232136857,0.3533519827933333,0.9156998524556204,49.375,-153.3125,143.0,-0.0166015625,0.736328125,0.712890625
1969/12/31/18:00:15.296000,190,1730344620,55154152,RL_myo,0.0018311960222858,0.2161421704971449,0.3609897758599591,0.9071745094404317,80.875,-107.4375,149.75,0.19287109375,0.82373046875,0.70068359375
1969/12/31/18:00:15.312000,191,1730344620,70598404,RL_myo,-0.0229507705107924,0.2372596940836445,0.3675785638723198,0.8989255247671296,81.0,-71.0,167.875,0.298828125,0.90185546875,0.744140625
1969/12/31/18:00:15.332000,192,1730344620,91040489,RL_myo,-0.047793082152552,0.2542860539559793,0.3618357484039956,0.895616723402805,5.875,-39.875,174.6875,0.5771484375,1.0478515625,0.771484375
1969/12/31/18:00:15.351000,193,1730344620,109964225,RL_myo,-0.0693406206315871,0.2682065907176003,0.3390731933173122,0.8990475363403586,-99.3125,-15.5625,174.3125,0.69580078125,1.03125,0.818359375
1969/12/31/18:00:15.377000,194,1730344620,136098891,RL_myo,-0.0891757187854276,0.2813216207269241,0.3108637479631644,0.903476378824025,-131.125,-10.5,170.875,0.6025390625,0.69921875,0.62353515625
1969/12/31/18:00:15.392000,195,1730344620,151096867,RL_myo,-0.1112087579293732,0.2934641647225173,0.2860787312925205,0.9053564798937396,-101.3125,-8.1875,173.75,0.564453125,0.349609375,0.66650390625
1969/12/31/18:00:15.409000,196,1730344620,167690588,RL_myo,-0.13464636516369,0.3039003862874037,0.2684382203036757,0.9041326415094018,-54.625,-6.9375,167.5625,0.6279296875,0.23974609375,0.69970703125
1969/12/31/18:00:15.431000,197,1730344620,190139686,RL_myo,-0.1593693638473627,0.3112921316053427,0.2612412398570327,0.8996952980123044,8.5,-2.875,154.125,0.68359375,0.28759765625,0.7490234375
1969/12/31/18:00:15.452000,198,1730344620,211144953,RL_myo,-0.1788426852236948,0.3117234107294912,0.2697289508544394,0.893358887690784,97.5,5.5625,83.25,0.7841796875,0.2607421875,0.84814453125
1969/12/31/18:00:15.469000,199,1730344620,227572511,RL_myo,-0.1798823573067983,0.310261968846439,0.2956125742914232,0.8854338225627472,149.25,-31.625,-36.1875,0.69970703125,0.3564453125,0.6845703125
1969/12/31/18:00:15.491000,200,1730344620,250046606,RL_myo,-0.190439274780155,0.3101962802669064,0.3117832742234077,0.8776686961743109,114.5625,-8.3125,29.0,1.064453125,0.37060546875,0.640625
1969/12/31/18:00:15.512000,201,1730344620,271068693,RL_myo,-0.1977565443922173,0.3087199387456281,0.3209881688144045,0.8732416298208188,75.875,11.25,8.9375,0.83251953125,0.2548828125,0.57666015625
1969/12/31/18:00:15.528000,202,1730344620,287048787,RL_myo,-0.2049063924052155,0.3076953006001465,0.3251523242009482,0.8704096382777403,47.875,9.5625,20.0625,0.59765625,0.1904296875,0.51708984375
1969/12/31/18:00:15.551000,203,1730344620,310115340,RL_myo,-0.2114364224382836,0.3101962756441563,0.3269207501672769,0.8672921843029944,26.9375,-2.9375,29.9375,0.630859375,0.23388671875,0.4462890625
1969/12/31/18:00:15.572000,204,1730344620,331191684,RL_myo,-0.2163121486786203,0.3145193290465379,0.3272758863472805,0.8643940884838095,9.25,-6.3125,28.125,0.791015625,0.35595703125,0.43896484375
1969/12/31/18:00:15.588000,205,1730344620,346896068,RL_myo,-0.2174091476826994,0.3173856170550356,0.3260526858284616,0.863533021172047,-7.5,-1.875,8.5625,0.82958984375,0.392578125,0.49609375
1969/12/31/18:00:15.611000,206,1730344620,370136511,RL_myo,-0.2147882699476462,0.3176962049097751,0.3235557314556614,0.8650126063364713,-18.1875,1.5625,-14.5,0.7275390625,0.353515625,0.57080078125
1969/12/31/18:00:15.634000,207,1730344620,392678656,RL_myo,-0.2111874570338819,0.3176967381102183,0.321175837835921,0.8667841263983114,-16.625,0.4375,-21.8125,0.68798828125,0.2958984375,0.576171875
1969/12/31/18:00:15.648000,208,1730344620,406990495,RL_myo,-0.2082566212644219,0.3169626712268884,0.3190379130566042,0.8685497422604702,-13.3125,3.8125,-19.9375,0.6611328125,0.28955078125,0.5771484375
1969/12/31/18:00:15.671000,209,1730344620,430088339,RL_myo,-0.205451174972689,0.3160505597173452,0.3169050803500302,0.8703292643896534,-15.3125,5.0625,-16.8125,0.625,0.3291015625,0.552734375
1969/12/31/18:00:15.694000,210,1730344620,452658042,RL_myo,-0.2030072328574866,0.3155584467448003,0.314459790643948,0.8719667253764444,-18.0625,3.25,-11.3125,0.61376953125,0.36376953125,0.556640625
1969/12/31/18:00:15.708000,211,1730344620,466950261,RL_myo,-0.2011840212593698,0.3155708100457955,0.311786401878902,0.8733437427727742,-18.5625,3.0625,-7.125,0.6416015625,0.3671875,0.55712890625
1969/12/31/18:00:15.708000,1,1730344626,488040515,RL_myo,-0.1864105398364193,0.3585991884541465,0.2854754730893691,0.8690002801739037,-2.125,-6.0,-5.9375,0.67041015625,0.34033203125,0.568359375
1969/12/31/18:00:15.731000,2,1730344626,510535284,RL_myo,-0.1851923108931907,0.3591534467025492,0.2859066526775561,0.8688900941214799,-1.0,-6.0,-5.375,0.67041015625,0.34765625,0.54150390625
1969/12/31/18:00:15.762000,3,1730344626,541870881,RL_myo,-0.1842685264585651,0.3596867924545625,0.2863211850338287,0.8687293597498369,0.8125,-5.5,-5.1875,0.6953125,0.3330078125,0.560546875
1969/12/31/18:00:15.768000,4,1730344626,547980040,RL_myo,-0.1832382260624532,0.3598842707742253,0.2877365082139922,0.8683978155198276,6.875,-5.9375,-8.8125,0.69580078125,0.3203125,0.5693359375
1969/12/31/18:00:15.791000,5,1730344626,570380008,RL_myo,-0.1818328851550388,0.3598814000920138,0.2904809333510674,0.8677805062937858,12.75,-7.5,-12.4375,0.68017578125,0.34130859375,0.552734375
1969/12/31/18:00:15.823000,6,1730344626,603267643,RL_myo,-0.1807315831192231,0.3597541205351912,0.2938948236133263,0.8669134329761318,16.8125,-7.3125,-12.5,0.68310546875,0.34228515625,0.54248046875
1969/12/31/18:00:15.828000,7,1730344626,607947366,RL_myo,-0.1798756234995857,0.3596902101401624,0.2975546876689787,0.8658688819019758,19.4375,-6.5625,-12.5625,0.70263671875,0.3359375,0.5341796875
1969/12/31/18:00:15.851000,8,1730344626,630538474,RL_myo,-0.1786557585663516,0.3594478176280303,0.3010352583700875,0.8650185891364315,16.8125,-5.25,-14.125,0.68212890625,0.34375,0.5087890625
1969/12/31/18:00:15.876000,9,1730344626,655837293,RL_myo,-0.1773117979800176,0.3590792796958498,0.3040241190149631,0.864402644748024,12.25,-4.375,-11.9375,0.66162109375,0.38232421875,0.494140625
1969/12/31/18:00:15.890000,10,1730344626,669389763,RL_myo,-0.1762184605282837,0.3589680520841138,0.3059255019631999,0.8640014924758769,6.8125,-3.75,-7.875,0.66552734375,0.390625,0.50048828125
1969/12/31/18:00:15.911000,11,1730344626,690525326,RL_myo,-0.1753034685772808,0.3591523708595824,0.3070862640711351,0.8636991923288735,4.4375,-4.3125,-6.8125,0.68310546875,0.3720703125,0.51708984375
1969/12/31/18:00:15.933000,12,1730344626,713153372,RL_myo,-0.1745112185512425,0.3590939135141518,0.3086144529538588,0.8633391658582633,7.8125,-3.4375,-8.0,0.69287109375,0.365234375,0.52685546875
1969/12/31/18:00:15.950000,13,1730344626,729449922,RL_myo,-0.1735922139141034,0.3582933529099111,0.3112940544873163,0.862894911428861,13.0625,-0.6875,-11.875,0.7060546875,0.38525390625,0.5244140625
1969/12/31/18:00:15.971000,14,1730344626,750621444,RL_myo,-0.1722457125991122,0.3566987754887357,0.3145834169864722,0.8626324082789701,16.8125,0.9375,-16.875,0.69287109375,0.38037109375,0.5341796875
1969/12/31/18:00:15.993000,15,1730344626,773041674,RL_myo,-0.1700547009519869,0.3551250000497702,0.3179522387863961,0.8624813081305006,14.0,0.0,-20.8125,0.6728515625,0.39697265625,0.5107421875
1969/12/31/18:00:16.017000,16,1730344626,796993758,RL_myo,-0.167486631482446,0.3535896706187355,0.3217281466996987,0.8622143426825922,15.0,-1.5,-22.0,0.68798828125,0.4345703125,0.5234375
1969/12/31/18:00:16.031000,17,1730344626,810474275,RL_myo,-0.1650480119099633,0.3512763715021594,0.3277155236481484,0.8613748313880929,29.1875,-0.75,-28.5,0.7490234375,0.4521484375,0.57666015625
1969/12/31/18:00:16.061000,18,1730344626,841211621,RL_myo,-0.161872860991586,0.3463908318730206,0.3374182411619485,0.8602089856540052,50.625,6.75,-46.75,0.7998046875,0.46533203125,0.59912109375
1969/12/31/18:00:16.069000,19,1730344626,849406600,RL_myo,-0.1577206544844272,0.3379030740037884,0.3514533779107323,0.8587352507513186,72.8125,18.0,-64.9375,0.77001953125,0.52490234375,0.58154296875
1969/12/31/18:00:16.091000,20,1730344626,870413566,RL_myo,-0.1546666539620693,0.3256300705949644,0.3693322506410739,0.8565261069651613,95.9375,32.8125,-69.875,0.7666015625,0.66015625,0.60400390625
1969/12/31/18:00:16.113000,21,1730344626,893069376,RL_myo,-0.1552790428738444,0.3087269649590821,0.3912494751656221,0.8529360633329802,131.25,57.875,-70.0,0.9501953125,0.89111328125,0.75830078125
1969/12/31/18:00:16.130000,22,1730344626,909424733,RL_myo,-0.1536313904603862,0.2850451304926514,0.4151160454990411,0.8501913538826855,139.5625,85.625,-99.0,0.9892578125,1.1826171875,0.830078125
1969/12/31/18:00:16.151000,23,1730344626,930581691,RL_myo,-0.1413649436031393,0.2536145685108134,0.4329453993856075,0.8533779259566021,83.375,113.125,-161.5,0.6923828125,1.34619140625,0.66748046875
1969/12/31/18:00:16.173000,24,1730344626,953108555,RL_myo,-0.1237838026640909,0.2182696638692254,0.4403846825549389,0.8620308900517536,13.4375,134.8125,-185.4375,0.41357421875,1.33251953125,0.59619140625
1969/12/31/18:00:16.191000,25,1730344626,970890987,RL_myo,-0.1058421954738034,0.1802491368132303,0.4372857487741219,0.8746935762050765,-47.4375,159.125,-184.125,0.2568359375,1.2275390625,0.5595703125
1969/12/31/18:00:16.211000,26,1730344626,990639096,RL_myo,-0.0895418053952889,0.1389820660429944,0.4291536698938489,0.8879714961763211,-69.1875,183.5625,-181.0625,0.1318359375,0.970703125,0.515625
1969/12/31/18:00:16.234000,27,1730344627,14353621,RL_myo,-0.075200476004031,0.0945499491316916,0.4265429596722151,0.8963628166551917,-22.4375,196.4375,-181.8125,-0.0029296875,0.69091796875,0.59619140625
1969/12/31/18:00:16.256000,28,1730344627,35472975,RL_myo,-0.058716487351601,0.0467534608225845,0.4393970815428022,0.8951517707885452,81.5,197.3125,-206.1875,-0.076171875,0.56005859375,0.49267578125
1969/12/31/18:00:16.271000,29,1730344627,50484739,RL_myo,-0.040528126206404,-0.0050660157758005,0.4647916883460345,0.8844775253870502,167.9375,205.5,-222.1875,-0.33251953125,0.66357421875,0.31103515625
1969/12/31/18:00:16.295000,30,1730344627,74485580,RL_myo,-0.0218510093100384,-0.0579234855732583,0.494089163030059,0.8672043024497935,203.8125,206.125,-222.1875,-0.681640625,0.82666015625,0.22119140625
1969/12/31/18:00:16.311000,31,1730344627,90837329,RL_myo,-0.0046999747567285,-0.1074890330727128,0.5186452663366503,0.8481928470064838,186.9375,196.875,-207.5,-0.70703125,0.921875,0.376953125
1969/12/31/18:00:16.331000,32,1730344627,110630219,RL_myo,0.0065921335807283,-0.1548541008732198,0.5347563175996372,0.830669869445664,140.6875,204.8125,-178.9375,-0.68359375,0.76953125,0.45556640625
1969/12/31/18:00:16.353000,33,1730344627,133113285,RL_myo,0.0095829996652574,-0.1991676936798418,0.5455595605609642,0.8140056276170305,108.1875,215.5,-133.0,-0.78173828125,0.6552734375,0.525390625
1969/12/31/18:00:16.371000,34,1730344627,150798728,RL_myo,0.0064699469709316,-0.2374958836216513,0.5558661043799482,0.7965969614870653,103.5625,208.875,-86.125,-0.82080078125,0.556640625,0.580078125
1969/12/31/18:00:16.391000,35,1730344627,170586903,RL_myo,-0.0010986915539702,-0.2686911233653998,0.5667417265896723,0.7788502349256023,102.0,192.1875,-42.3125,-0.7783203125,0.45751953125,0.56201171875
1969/12/31/18:00:16.416000,36,1730344627,195855890,RL_myo,-0.0135502587505416,-0.2926123443698052,0.5774729641390755,0.7620494617140214,88.875,174.0625,3.1875,-0.76318359375,0.37109375,0.42333984375
1969/12/31/18:00:16.431000,37,1730344627,210884349,RL_myo,-0.0293586254955434,-0.3070753531560891,0.588271169492822,0.7475157722326822,73.3125,138.75,49.875,-0.794921875,0.361328125,0.25634765625
1969/12/31/18:00:16.451000,38,1730344627,230490042,RL_myo,-0.041199515450482,-0.312078699997503,0.5971183105956527,0.7378070263191505,67.1875,81.625,79.375,-0.72119140625,0.60205078125,0.31396484375
1969/12/31/18:00:16.473000,39,1730344627,253144184,RL_myo,-0.0516988432359773,-0.309338533081385,0.6108032163664995,0.7270187978556386,87.125,44.8125,88.375,-0.4326171875,0.751953125,0.232421875
1969/12/31/18:00:16.492000,40,1730344627,271379563,RL_myo,-0.0596337519559676,-0.3057374243064913,0.627222553837793,0.7138349325742496,102.8125,32.5625,79.625,-0.28515625,0.54150390625,0.23583984375
1969/12/31/18:00:16.511000,41,1730344627,290457493,RL_myo,-0.0676281979456596,-0.2987725892996425,0.6402095381335956,0.704480740693866,79.0,15.3125,86.625,-0.22509765625,0.513671875,0.134765625
1969/12/31/18:00:16.533000,42,1730344627,312936119,RL_myo,-0.0753800238119726,-0.2861389082028563,0.6590106211318771,0.6914820160047268,106.4375,-7.375,113.9375,-0.08984375,0.49658203125,0.04541015625
1969/12/31/18:00:16.551000,43,1730344627,330887376,RL_myo,-0.085265476259314,-0.2683695770309261,0.6799265608652529,0.6770579299531643,116.3125,-17.9375,142.6875,0.12109375,0.4716796875,0.12744140625
1969/12/31/18:00:16.571000,44,1730344627,350493414,RL_myo,-0.0971709874326392,-0.2504350260277129,0.695578249235149,0.6663415011319869,77.5625,-14.4375,140.75,0.1796875,0.5029296875,0.06787109375
1969/12/31/18:00:16.593000,45,1730344627,372985677,RL_myo,-0.1075473690803036,-0.2335279421686956,0.7115094672923381,0.6539514825915853,84.875,-14.8125,131.9375,0.193359375,0.517578125,-0.10546875
1969/12/31/18:00:16.611000,46,1730344627,390987652,RL_myo,-0.1162135262285166,-0.2164354852974369,0.7308512411030768,0.6367939701376649,119.5625,-19.0625,130.375,0.41845703125,0.61181640625,-0.15087890625
1969/12/31/18:00:16.631000,47,1730344627,410612163,RL_myo,-0.1245157856865962,-0.2011784458936378,0.74654537977096,0.6218464826348247,98.1875,-19.875,85.875,0.4892578125,0.84912109375,-0.1904296875
1969/12/31/18:00:16.653000,48,1730344627,433103783,RL_myo,-0.1293359143399548,-0.1927526274117873,0.7545307093301188,0.613842043660654,38.3125,-12.3125,40.1875,0.3701171875,0.92529296875,-0.390625
1969/12/31/18:00:16.671000,49,1730344627,450943632,RL_myo,-0.1350776729552702,-0.1841524352941935,0.7597432423290775,0.6087956213537574,7.3125,-9.6875,43.5625,0.32080078125,0.85888671875,-0.49072265625
1969/12/31/18:00:16.691000,50,1730344627,470501527,RL_myo,-0.1423971416950607,-0.1738917516884818,0.7638053284063395,0.6050505210557809,0.875,-8.3125,54.625,0.33740234375,0.947265625,-0.4248046875
1969/12/31/18:00:16.714000,51,1730344627,493182942,RL_myo,-0.1479529973295531,-0.1671185258615167,0.7645458929661646,0.6046907361979716,-18.8125,-2.6875,34.5625,0.24560546875,0.953125,-0.39453125
1969/12/31/18:00:16.731000,52,1730344627,510989910,RL_myo,-0.1503965146806802,-0.162359873803007,0.7663874343874273,0.6030509598397404,-16.6875,-6.25,28.125,0.0927734375,0.890625,-0.5546875
1969/12/31/18:00:16.751000,53,1730344627,530587879,RL_myo,-0.1536934907050177,-0.1547311354000079,0.7726790702282842,0.5961573962334823,23.8125,-11.4375,50.9375,0.130859375,0.861328125,-0.4892578125
1969/12/31/18:00:16.773000,54,1730344627,553062055,RL_myo,-0.1591892868097234,-0.1464321698836375,0.7759867343604349,0.5925039904378779,10.5,-6.1875,50.6875,0.2421875,1.0517578125,-0.33544921875
1969/12/31/18:00:16.799000,55,1730344627,578511887,RL_myo,-0.1614406197860427,-0.141970087569881,0.7780888548326927,0.5902195815996344,5.0,-5.3125,29.4375,0.12060546875,1.06298828125,-0.3681640625
1969/12/31/18:00:16.811000,56,1730344627,590555090,RL_myo,-0.1610192049989192,-0.1377025498398642,0.7814131396497969,0.5869449110195631,14.0,-13.6875,31.1875,-0.0224609375,1.013671875,-0.39697265625
1969/12/31/18:00:16.833000,57,1730344627,613027279,RL_myo,-0.1595466785338801,-0.1322638302918585,0.7836342026382888,0.5856351876559218,4.9375,-22.75,33.0,-0.048828125,1.09375,-0.3642578125
1969/12/31/18:00:16.851000,58,1730344627,630981735,RL_myo,-0.1580843720533372,-0.1266506069539285,0.7842571801209769,0.5864380875245035,-8.4375,-25.25,23.375,0.05859375,1.05908203125,-0.33251953125
1969/12/31/18:00:16.872000,59,1730344627,651947152,RL_myo,-0.1585173375185641,-0.1220772718664337,0.7842854331059034,0.5872527163134794,-6.8125,-14.625,19.625,0.12890625,0.9833984375,-0.24462890625
1969/12/31/18:00:16.893000,60,1730344627,673167549,RL_myo,-0.1603438238378139,-0.1179842449480374,0.7848729466046631,0.5868083450235035,-0.3125,-5.5,27.75,0.078125,0.9599609375,-0.24853515625
1969/12/31/18:00:16.913000,61,1730344627,692557384,RL_myo,-0.1636378688001877,-0.1138934215520888,0.7848025800196992,0.586801369132788,-5.5,1.5625,31.0625,0.09765625,0.935546875,-0.24462890625
1969/12/31/18:00:16.932000,62,1730344627,712016537,RL_myo,-0.1675449736123996,-0.1109642120318187,0.7848062916969888,0.5862548165927498,-1.6875,8.0625,27.1875,0.11328125,0.8779296875,-0.216796875
1969/12/31/18:00:16.953000,63,1730344627,733130538,RL_myo,-0.1673639668243145,-0.1104773085164148,0.7849992623368014,0.5861401070072548,-1.5625,1.5625,15.375,-0.05224609375,1.05419921875,-0.31884765625
1969/12/31/18:00:16.971000,64,1730344627,750963181,RL_myo,-0.1621183739260411,-0.1112122278965538,0.7870309914918577,0.5847492553507055,17.4375,-17.5,0.0625,-0.12548828125,1.10595703125,-0.294921875
1969/12/31/18:00:16.992000,65,1730344627,772082618,RL_myo,-0.1564982012812545,-0.1079739930056705,0.7916465174016658,0.5806425073278371,26.875,-33.25,15.3125,-0.04638671875,1.11181640625,-0.4384765625
1969/12/31/18:00:17.013000,66,1730344627,793161042,RL_myo,-0.1522866943067847,-0.1044949180974811,0.7942712436930621,0.5788115118682324,21.25,-32.0,6.625,0.109375,1.08642578125,-0.25439453125
1969/12/31/18:00:17.031000,67,1730344627,811019604,RL_myo,-0.1492353243203612,-0.1004668072929712,0.7947009908593472,0.5797288795070722,-2.6875,-28.4375,7.875,0.1240234375,1.01025390625,-0.26953125
1969/12/31/18:00:17.052000,68,1730344627,831997920,RL_myo,-0.1475228456435117,-0.0956426558226656,0.7943772594333077,0.5814243390980937,-12.0625,-22.5625,20.625,0.0322265625,0.94287109375,-0.2802734375
1969/12/31/18:00:17.074000,69,1730344627,853809785,RL_myo,-0.1452648805471528,-0.0916755674713544,0.7956609171481865,0.5808764151963248,-1.0625,-22.625,16.125,0.05224609375,0.9013671875,-0.353515625
1969/12/31/18:00:17.090000,70,1730344627,870115201,RL_myo,-0.1426477176140963,-0.090581605879041,0.7986318944214105,0.5776103345238311,20.9375,-14.9375,2.75,0.07275390625,0.82861328125,-0.3193359375
1969/12/31/18:00:17.112000,71,1730344627,891388519,RL_myo,-0.140323693118877,-0.0907617797597956,0.8039772447854933,0.5706944456987824,42.8125,-8.375,4.6875,0.0341796875,0.8212890625,-0.38525390625
1969/12/31/18:00:17.134000,72,1730344627,913797263,RL_myo,-0.1378267848206306,-0.0909485869719839,0.8106632104529654,0.5617448630222605,54.4375,-7.125,10.5,-0.013671875,0.93017578125,-0.48193359375
1969/12/31/18:00:17.150000,73,1730344627,930173449,RL_myo,-0.134036831776952,-0.0908227712586997,0.817343904519656,0.5529324494842479,55.375,-14.3125,7.5625,-0.00634765625,1.00146484375,-0.51416015625
1969/12/31/18:00:17.171000,74,1730344627,951206897,RL_myo,-0.130439613587377,-0.090276176179565,0.8215803457585841,0.5475778069688155,35.9375,-17.0,2.1875,0.06494140625,1.06640625,-0.48681640625
1969/12/31/18:00:17.187000,75,1730344627,967071573,RL_myo,-0.1274430574842745,-0.0893566265119625,0.8244735730352396,0.5440744321910073,19.25,-14.4375,3.75,0.04541015625,0.98828125,-0.51318359375
1969/12/31/18:00:17.210000,76,1730344627,990126257,RL_myo,-0.124699380756255,-0.0869782758578871,0.8262631019566447,0.5423782170338143,7.0625,-17.5,11.4375,0.013671875,0.95947265625,-0.4951171875
1969/12/31/18:00:17.233000,77,1730344628,12589125,RL_myo,-0.1228678133098757,-0.0841702506479476,0.827908107170966,0.5407282454606006,5.8125,-15.625,12.375,0.06396484375,0.87451171875,-0.455078125
1969/12/31/18:00:17.247000,78,1730344628,27067899,RL_myo,-0.1223188356402388,-0.081057591681755,0.8292533438165095,0.53926492658758,6.0,-12.5625,14.1875,0.11328125,0.84326171875,-0.40869140625
1969/12/31/18:00:17.270000,79,1730344628,50163099,RL_myo,-0.1226246167127334,-0.0789216672023714,0.8306001912528006,0.537436411227286,8.5625,-5.6875,11.0,0.14794921875,0.87890625,-0.4189453125
1969/12/31/18:00:17.293000,80,1730344628,72681666,RL_myo,-0.1229875994371418,-0.0785533699630777,0.8321652261667455,0.5349807985441928,8.9375,1.5625,5.5,0.115234375,0.91552734375,-0.5126953125
1969/12/31/18:00:17.315000,81,1730344628,95072725,RL_myo,-0.1229905486034766,-0.0784942161310526,0.8340773432588132,0.532002789889778,15.125,2.3125,7.625,0.05810546875,0.947265625,-0.49755859375
1969/12/31/18:00:17.338000,82,1730344628,117747151,RL_myo,-0.1236034406201151,-0.0769698462330692,0.8351319874392178,0.5304266167845931,9.875,-0.0625,14.625,0.07421875,0.96826171875,-0.42578125
1969/12/31/18:00:17.353000,83,1730344628,132707977,RL_myo,-0.1240288497642825,-0.0753817074108705,0.8347532231182718,0.5311511076027494,-3.9375,-2.25,10.375,0.1005859375,0.9912109375,-0.412109375
1969/12/31/18:00:17.367000,84,1730344628,147046639,RL_myo,-0.1243308135820784,-0.0745252446655463,0.8339380981698273,0.5324801265046896,-6.625,-0.0625,7.3125,0.08349609375,0.95703125,-0.375
1969/12/31/18:00:17.390000,85,1730344628,170208733,RL_myo,-0.1255510179612729,-0.0737925039937671,0.833080138139725,0.5336376033229991,-8.5625,5.5,10.5,0.060546875,0.921875,-0.39794921875
1969/12/31/18:00:17.413000,86,1730344628,192731381,RL_myo,-0.1265930987240764,-0.0728795370668019,0.8325602056877546,0.5343278622133874,-5.5625,5.125,13.0625,0.0341796875,0.93017578125,-0.4013671875
1969/12/31/18:00:17.427000,87,1730344628,207035532,RL_myo,-0.1269572941471775,-0.0725121468494456,0.8318754624672511,0.5353569360408144,-8.75,2.75,6.75,0.0654296875,0.96533203125,-0.4345703125
1969/12/31/18:00:17.450000,88,1730344628,230144719,RL_myo,-0.1272033914843096,-0.0725742958132649,0.8318271684972031,0.5353651375762377,-3.3125,3.875,5.0,0.0654296875,0.9208984375,-0.44775390625
1969/12/31/18:00:17.473000,89,1730344628,252656586,RL_myo,-0.1279324703135292,-0.0724503064227858,0.8320493489093654,0.5348627086629085,-0.75,5.125,6.625,0.08349609375,0.93017578125,-0.45947265625
1969/12/31/18:00:17.487000,90,1730344628,266908385,RL_myo,-0.128604515562188,-0.0723896323952325,0.8324197357556335,0.5341329452703878,0.875,4.5625,5.1875,0.1015625,0.90673828125,-0.44580078125
1969/12/31/18:00:17.510000,91,1730344628,290154865,RL_myo,-0.1296416635608339,-0.0720841829874504,0.8325997799591974,0.5336426857402876,-0.375,4.9375,6.1875,0.12548828125,0.93017578125,-0.447265625
1969/12/31/18:00:17.533000,92,1730344628,312558460,RL_myo,-0.1308067680945446,-0.0722702815790671,0.832817332656074,0.5329933266456199,1.4375,7.5625,5.875,0.10986328125,0.95947265625,-0.45263671875
1969/12/31/18:00:17.547000,93,1730344628,326938334,RL_myo,-0.1312909919823721,-0.0737939606260752,0.8328524340304357,0.5326105048991999,1.25,9.0625,-1.625,0.08251953125,0.95654296875,-0.4462890625
1969/12/31/18:00:17.570000,94,1730344628,350144123,RL_myo,-0.1314731043424892,-0.0757465749716941,0.8328461043422773,0.5323012734312204,2.0625,9.0,-3.875,0.0712890625,0.92529296875,-0.4150390625
1969/12/31/18:00:17.599000,95,1730344628,378709941,RL_myo,-0.1310440382510852,-0.0780038569561653,0.8321632126293883,0.5331484276307544,-7.0,7.25,-9.3125,0.07958984375,0.95654296875,-0.46484375
1969/12/31/18:00:17.614000,96,1730344628,393756759,RL_myo,-0.1300716372925352,-0.0806309867965457,0.8306029283326227,0.5354239335195302,-18.8125,5.875,-14.0,0.0810546875,0.96337890625,-0.5
1969/12/31/18:00:17.630000,97,1730344628,410107539,RL_myo,-0.1290928981299801,-0.0822166117168242,0.8291853527639622,0.5376124098008818,-19.9375,2.3125,-10.5625,0.09130859375,0.94189453125,-0.50634765625
1969/12/31/18:00:17.653000,98,1730344628,432687662,RL_myo,-0.1274445509143078,-0.0836202273719357,0.827474031008272,0.5404186081395028,-20.4375,-2.5625,-12.6875,0.10302734375,1.00927734375,-0.4814453125
1969/12/31/18:00:17.674000,99,1730344628,453551345,RL_myo,-0.1243363017585698,-0.0856986586495003,0.8261619265106741,0.5428192103774973,-18.1875,-6.375,-18.8125,0.07568359375,1.0234375,-0.509765625
1969/12/31/18:00:17.690000,100,1730344628,470210419,RL_myo,-0.1204899140396607,-0.08734603191021,0.824751630447769,0.5455617283112907,-19.4375,-11.875,-19.8125,0.07763671875,1.04443359375,-0.50537109375
1969/12/31/18:00:17.713000,101,1730344628,492690782,RL_myo,-0.1163399597581878,-0.0887504205080824,0.8234134612476146,0.5482505343903687,-16.1875,-15.75,-22.5625,0.1142578125,1.0595703125,-0.46044921875
1969/12/31/18:00:17.735000,102,1730344628,515256492,RL_myo,-0.1121244478809398,-0.0907005604524097,0.8215542016752592,0.5515888053892509,-19.1875,-14.3125,-26.1875,0.10498046875,1.08447265625,-0.44287109375
1969/12/31/18:00:17.750000,103,1730344628,530225618,RL_myo,-0.1066931716552454,-0.09363119297434,0.820219016420588,0.5541574974015865,-13.1875,-15.125,-29.6875,0.02685546875,1.06494140625,-0.443359375
1969/12/31/18:00:17.773000,104,1730344628,552603921,RL_myo,-0.1002845382144386,-0.0967443658368138,0.8195499054201261,0.5558070632870833,-6.875,-19.0,-32.5,0.00244140625,1.033203125,-0.43798828125
1969/12/31/18:00:17.794000,105,1730344628,573765853,RL_myo,-0.0936294687666988,-0.099794120882368,0.8200208037031281,0.5557342328036459,3.4375,-20.5,-32.125,0.00244140625,1.02099609375,-0.455078125
1969/12/31/18:00:17.818000,106,1730344628,597582056,RL_myo,-0.0864278207849359,-0.1032128848498069,0.8208811876670927,0.5550057728795356,10.875,-21.75,-34.9375,-0.02001953125,1.00830078125,-0.4169921875
1969/12/31/18:00:17.833000,107,1730344628,612629125,RL_myo,-0.0784332842716197,-0.1071819822419956,0.8219930266816372,0.5537939207754136,13.625,-22.875,-38.125,-0.06201171875,0.9921875,-0.439453125
1969/12/31/18:00:17.854000,108,1730344628,633754998,RL_myo,-0.0701300368289839,-0.1102915374673402,0.8239821559541192,0.5513356159061895,22.0,-26.3125,-33.5,-0.0869140625,0.935546875,-0.42138671875
1969/12/31/18:00:17.878000,109,1730344628,657599094,RL_myo,-0.0620145435224968,-0.1123708411662566,0.8262095089768872,0.5485479356660229,26.75,-29.6875,-29.4375,-0.076171875,0.91455078125,-0.37939453125
1969/12/31/18:00:17.900000,110,1730344628,680234521,RL_myo,-0.0532248125656018,-0.1145676298000396,0.8280975138503669,0.5461647050883086,24.6875,-32.125,-32.0625,-0.09326171875,0.9052734375,-0.375
1969/12/31/18:00:17.915000,111,1730344628,695085577,RL_myo,-0.0450455347311102,-0.1160319261840659,0.8299853404791839,0.5437203568898786,22.0,-32.375,-28.8125,-0.078125,0.8388671875,-0.39306640625
1969/12/31/18:00:17.930000,112,1730344628,710094406,RL_myo,-0.0380868909063439,-0.1165190300323888,0.8324182983665366,0.5404188014178997,26.25,-29.4375,-20.0,-0.07568359375,0.7822265625,-0.37939453125
1969/12/31/18:00:17.960000,113,1730344628,740096107,RL_myo,-0.0317393878627922,-0.1167032876801129,0.8352952363505989,0.5363346175968369,33.25,-26.1875,-14.375,-0.1201171875,0.78955078125,-0.3603515625
1969/12/31/18:00:17.974000,114,1730344628,753685072,RL_myo,-0.024902633517341,-0.1170667918780887,0.8383276258840191,0.5318665403679173,35.1875,-26.3125,-13.9375,-0.17041015625,0.82080078125,-0.39990234375
1969/12/31/18:00:17.990000,115,1730344628,769454429,RL_myo,-0.0178842724203019,-0.11707179010969,0.8411101500060107,0.5277386325799688,32.3125,-28.9375,-14.0625,-0.1630859375,0.84619140625,-0.43017578125
1969/12/31/18:00:18.013000,116,1730344628,792673612,RL_myo,-0.012146314602455,-0.1164581319672579,0.8427955378427134,0.525343365745382,21.3125,-27.125,-11.75,-0.12451171875,0.8623046875,-0.41796875
1969/12/31/18:00:18.034000,117,1730344628,813623892,RL_myo,-0.0079347649776777,-0.1147489089079549,0.8439538103565386,0.5239386351414281,12.3125,-25.4375,-4.3125,-0.083984375,0.82568359375,-0.43017578125
1969/12/31/18:00:18.050000,118,1730344628,829450241,RL_myo,-0.0047608067536149,-0.1129776064223244,0.8451652707346984,0.5224069872332118,10.25,-20.75,-1.4375,-0.078125,0.7919921875,-0.44873046875
1969/12/31/18:00:18.073000,119,1730344628,852629365,RL_myo,-0.0014038684372118,-0.1112718330885767,0.8464105921224868,0.5207741524474694,13.5625,-19.4375,0.75,-0.1357421875,0.8125,-0.42333984375
1969/12/31/18:00:18.094000,120,1730344628,873767500,RL_myo,0.002563601247631,-0.1091972055240958,0.8475754029667945,0.5193123670201273,13.375,-23.1875,1.3125,-0.15087890625,0.8349609375,-0.43603515625
1969/12/31/18:00:18.110000,121,1730344628,889504266,RL_myo,0.0056156236123525,-0.1068189274088799,0.8487526774974147,0.51785816007825,12.875,-21.0,3.125,-0.1162109375,0.84375,-0.43701171875
1969/12/31/18:00:18.133000,122,1730344628,912749341,RL_myo,0.0076905364075559,-0.1040053495117091,0.8494380570155261,0.5172801274129901,7.75,-17.8125,7.9375,-0.11474609375,0.8359375,-0.41748046875
1969/12/31/18:00:18.156000,123,1730344628,935724462,RL_myo,0.008484517924053,-0.1005934211427293,0.8505271421133438,0.5161516803294413,11.1875,-13.875,13.0,-0.08203125,0.82373046875,-0.40771484375
1969/12/31/18:00:18.170000,124,1730344628,949536626,RL_myo,0.0092776879083024,-0.0975377978780745,0.8525096514161872,0.513446780820002,21.4375,-10.6875,14.625,-0.1240234375,0.8037109375,-0.4052734375
1969/12/31/18:00:18.193000,125,1730344628,972674425,RL_myo,0.0114141487984647,-0.0945482165177642,0.8549014335363502,0.5099744021987866,27.9375,-15.4375,11.8125,-0.1552734375,0.85986328125,-0.43408203125
1969/12/31/18:00:18.215000,126,1730344628,995187733,RL_myo,0.0130619041784063,-0.0913722923134314,0.8568975362647058,0.5071558963475632,20.625,-17.8125,8.0625,-0.0546875,0.88427734375,-0.48974609375
1969/12/31/18:00:18.238000,127,1730344629,17637954,RL_myo,0.0137336789370913,-0.0868578894554712,0.8581412985625234,0.505826654896339,12.75,-17.6875,16.125,-0.04052734375,0.87109375,-0.4638671875
1969/12/31/18:00:18.253000,128,1730344629,32655884,RL_myo,0.0137942723731969,-0.0819721583947056,0.858846046740062,0.5054441129311672,3.8125,-15.8125,22.1875,-0.068359375,0.83447265625,-0.47802734375
1969/12/31/18:00:18.276000,129,1730344629,55868044,RL_myo,0.013001348445509,-0.0771535419489366,0.8596149772680967,0.5049162175645597,5.0625,-12.0625,22.1875,-0.0283203125,0.83056640625,-0.46435546875
1969/12/31/18:00:18.290000,130,1730344629,69488237,RL_myo,0.0115968964545867,-0.0726331935839907,0.8612221524958905,0.5028780520491596,15.5625,-7.1875,22.5625,-0.02197265625,0.8203125,-0.45068359375
1969/12/31/18:00:18.312000,131,1730344629,92353252,RL_myo,0.0107430118408228,-0.068425660645241,0.8629812579861004,0.5004656481983333,18.875,-7.5625,22.375,-0.06298828125,0.8857421875,-0.4775390625
1969/12/31/18:00:18.335000,132,1730344629,115137141,RL_myo,0.0102540265973671,-0.0647590608321816,0.8642069201911974,0.49884618678739,13.3125,-8.5625,17.5625,-0.0517578125,0.9189453125,-0.50830078125
1969/12/31/18:00:18.350000,133,1730344629,129581602,RL_myo,0.0086671335275708,-0.0604868262381883,0.8646381236025991,0.4986653585933386,3.0625,-7.25,20.5,0.0107421875,0.87646484375,-0.490234375
1969/12/31/18:00:18.373000,134,1730344629,152670647,RL_myo,0.005981854485671,-0.0554847523211733,0.864805248499872,0.4989965349016412,-1.75,-4.0625,27.375,0.02587890625,0.802734375,-0.46484375
1969/12/31/18:00:18.395000,135,1730344629,175136311,RL_myo,0.0032349624217531,-0.0513321395602709,0.8650167441714146,0.4990997683523608,0.5,-0.4375,24.75,0.005859375,0.83203125,-0.46337890625
1969/12/31/18:00:18.416000,136,1730344629,196290018,RL_myo,0.0008545337221489,-0.0479149265633518,0.8654595461678546,0.498681464996923,5.6875,-0.3125,19.0,0.025390625,0.896484375,-0.4755859375
1969/12/31/18:00:18.433000,137,1730344629,213161337,RL_myo,-6.103829504463592,-0.0457787212834769,0.8656451003230266,0.4985607939245861,4.1875,-2.5625,11.75,-0.02490234375,0.98095703125,-0.51318359375
1969/12/31/18:00:18.455000,138,1730344629,235198771,RL_myo,0.0004272590827224,-0.0440687225322302,0.8642230503238891,0.5011749040334383,-15.8125,-7.3125,7.9375,-0.07275390625,0.984375,-0.546875
1969/12/31/18:00:18.476000,139,1730344629,256171304,RL_myo,-0.0010376498772387,-0.0405904216684568,0.861859780388889,0.5055186048994886,-27.1875,-5.375,17.625,0.0126953125,0.904296875,-0.484375
1969/12/31/18:00:18.493000,140,1730344629,272599874,RL_myo,-0.0043948717962118,-0.0371122507235664,0.8594415957036441,0.5098661682466292,-26.8125,2.1875,20.625,0.0615234375,0.8564453125,-0.42919921875
1969/12/31/18:00:18.515000,141,1730344629,295137003,RL_myo,-0.0067752697070554,-0.0347308870568878,0.8582618680261874,0.5119906513764071,-12.4375,4.8125,18.75,-0.0341796875,0.87353515625,-0.43896484375
1969/12/31/18:00:18.538000,142,1730344629,317749592,RL_myo,-0.0070193903049771,-0.0336320352873254,0.858013647974472,0.5124765304398995,1.0625,0.625,10.5625,-0.09814453125,0.943359375,-0.443359375
1969/12/31/18:00:18.560000,143,1730344629,340075059,RL_myo,-0.0068363794008374,-0.0329611149683236,0.8570500282782072,0.5141323544040551,-6.75,-2.4375,4.0,-0.04638671875,1.015625,-0.47314453125
1969/12/31/18:00:18.575000,144,1730344629,355121480,RL_myo,-0.0082400344312102,-0.0311290189623496,0.8554986858358687,0.5168027520670877,-15.125,-0.5,9.8125,0.02490234375,0.96923828125,-0.46435546875
1969/12/31/18:00:18.596000,145,1730344629,376277638,RL_myo,-0.0110478973836822,-0.0287489484404107,0.8534348133626819,0.5202888248536333,-21.5625,4.5,16.0625,0.04150390625,0.91650390625,-0.4365234375
1969/12/31/18:00:18.613000,146,1730344629,392741856,RL_myo,-0.0134279940228046,-0.0271611697279457,0.8520062207469532,0.5226541491694362,-17.0,7.0,15.125,-0.01513671875,0.91552734375,-0.474609375
1969/12/31/18:00:18.635000,147,1730344629,415093283,RL_myo,-0.0149539452476383,-0.0258184442438817,0.8514593314471636,0.5235711932009871,-7.25,3.0625,10.5625,0.00146484375,0.91845703125,-0.474609375
1969/12/31/18:00:18.656000,148,1730344629,436288571,RL_myo,-0.0166022678944764,-0.0245982130936543,0.8507441540926918,0.5247415334147562,-5.1875,3.3125,8.9375,0.03466796875,0.9453125,-0.43017578125
1969/12/31/18:00:18.673000,149,1730344629,452543403,RL_myo,-0.018555821993136,-0.0240493219253144,0.8490509339622428,0.5274370323772639,-16.8125,6.8125,6.4375,0.02734375,0.99853515625,-0.4638671875
