time,.header.seq,.header.stamp.secs,.header.stamp.nsecs,.header.frame_id,.orientation.x,.orientation.y,.orientation.z,.orientation.w,.angular_velocity.x,.angular_velocity.y,.angular_velocity.z,.linear_acceleration.x,.linear_acceleration.y,.linear_acceleration.z
1969/12/31/18:00:41.435,1,1730345727,532838975,RU_myo,-0.5902184206308716,-0.08563355161790205,0.7395125526746268,0.3121382629892738,32.9375,3.0625,-6.5625,0.822265625,0.53125,-0.20361328125
1969/12/31/18:00:41.456,2,1730345727,553942439,RU_myo,-0.5894814369567111,-0.08880673957051301,0.7413379098442962,0.308290612763341,28.25,0.6875,-6.125,0.8271484375,0.4775390625,-0.1552734375
1969/12/31/18:00:41.472,3,1730345727,569366085,RU_myo,-0.5895657848532078,-0.09070242843895503,0.7431983638443583,0.3030535378192542,29.75,1.75,2.625,0.83203125,0.421875,-0.150390625
1969/12/31/18:00:41.495,4,1730345727,592212961,RU_myo,-0.5887623908602805,-0.09411897228971101,0.7458714924645062,0.29694474720456815,39.5625,0.5625,5.4375,0.80029296875,0.52734375,-0.19482421875
1969/12/31/18:00:41.517,5,1730345727,614935658,RU_myo,-0.586798210279468,-0.09832867867279206,0.748848267310047,0.2919342458671412,39.8125,-4.4375,0.5,0.8212890625,0.60986328125,-0.2138671875
1969/12/31/18:00:41.532,6,1730345727,629315928,RU_myo,-0.584976970160553,-0.10138217314656495,0.751302329476862,0.28821590704279326,29.4375,-6.625,-2.3125,0.85546875,0.5751953125,-0.19775390625
1969/12/31/18:00:41.555,7,1730345727,652954871,RU_myo,-0.5848512719796253,-0.10156465420309918,0.752701511798449,0.28473504318356835,17.0,-3.0625,5.3125,0.8583984375,0.46533203125,-0.15576171875
1969/12/31/18:00:41.578,8,1730345727,675230662,RU_myo,-0.5855151856519659,-0.10095299875621302,0.7534853504506952,0.28149651164670764,10.6875,4.125,13.5625,0.873046875,0.55078125,-0.22119140625
1969/12/31/18:00:41.592,9,1730345727,689772742,RU_myo,-0.5852166186076242,-0.10260212097198751,0.7533107537396013,0.28198798268327324,0.8125,7.1875,-3.0,0.888671875,0.697265625,-0.25830078125
1969/12/31/18:00:41.615,10,1730345727,712823625,RU_myo,-0.5851386130842481,-0.10656639391312164,0.7524344239180776,0.28301739322745995,7.6875,8.75,-17.375,0.84130859375,0.62841796875,-0.16845703125
1969/12/31/18:00:41.637,11,1730345727,735006113,RU_myo,-0.5858367991657576,-0.10803616738105762,0.7514922558167126,0.2835186426468998,1.3125,6.5,-11.0625,0.81005859375,0.48388671875,-0.12060546875
1969/12/31/18:00:41.660,12,1730345727,757356438,RU_myo,-0.5865687484177247,-0.10779192608800227,0.7511864294252797,0.28290802798295045,0.0625,3.0,-3.875,0.82568359375,0.41650390625,-0.13623046875
1969/12/31/18:00:41.675,13,1730345727,772328595,RU_myo,-0.5867999427238473,-0.1088271580899334,0.7520243493135556,0.2797889471027789,15.0,3.8125,-2.25,0.8212890625,0.39208984375,-0.1923828125
1969/12/31/18:00:41.696,14,1730345727,793417615,RU_myo,-0.5863175600409325,-0.11126971808813449,0.7538630214517549,0.2748478006313053,28.0625,3.5,-1.8125,0.82470703125,0.4033203125,-0.2392578125
1969/12/31/18:00:41.712,15,1730345727,809621411,RU_myo,-0.585826522798869,-0.1148093029156775,0.7553243612873519,0.2703908622628662,30.5,4.75,-3.8125,0.83447265625,0.48681640625,-0.23193359375
1969/12/31/18:00:41.735,16,1730345727,832342634,RU_myo,-0.5856425706088325,-0.11779991258728993,0.7558115635069488,0.2681321326403962,19.5625,5.8125,-4.0,0.83837890625,0.578125,-0.2099609375
1969/12/31/18:00:41.756,17,1730345727,853392990,RU_myo,-0.5857578324682016,-0.11877511117881841,0.755375527209176,0.2686783347426303,-0.5,5.3125,-2.5,0.82763671875,0.61328125,-0.2119140625
1969/12/31/18:00:41.772,18,1730345727,869236927,RU_myo,-0.5858085205449203,-0.11828473773870135,0.7546297716208996,0.27087082873289814,-13.375,2.5,-4.0625,0.84033203125,0.587890625,-0.20263671875
1969/12/31/18:00:41.795,19,1730345727,892343126,RU_myo,-0.5856379464128321,-0.11767691096237,0.7539745234015336,0.27331805357338845,-14.9375,0.25,-8.3125,0.8642578125,0.5478515625,-0.2001953125
1969/12/31/18:00:41.816,20,1730345727,913375631,RU_myo,-0.58502466311532,-0.11846978310973773,0.7534824690827987,0.2756360332424398,-10.875,2.625,-14.8125,0.83056640625,0.52490234375,-0.236328125
1969/12/31/18:00:41.832,21,1730345727,929239794,RU_myo,-0.5848483861364175,-0.12164504629199335,0.753735412272868,0.2739302397182469,11.0,13.5,-14.0625,0.85302734375,0.47412109375,-0.328125
1969/12/31/18:00:41.855,22,1730345727,952248909,RU_myo,-0.5857095877655192,-0.12604108990577295,0.7561244657398136,0.26331295973535324,56.6875,13.8125,-3.3125,0.94775390625,0.2333984375,-0.265625
1969/12/31/18:00:41.876,23,1730345727,974040945,RU_myo,-0.5888790481039735,-0.13324242972750563,0.7577667270119022,0.24750254353872436,96.25,19.3125,10.1875,1.15771484375,0.4453125,-0.06298828125
1969/12/31/18:00:41.892,24,1730345727,989189099,RU_myo,-0.5922805823649971,-0.13726700636220923,0.7568911275668105,0.23974424232581498,52.375,18.3125,21.875,1.14697265625,0.8798828125,-0.06787109375
1969/12/31/18:00:41.915,25,1730345728,12392580,RU_myo,-0.594431275333982,-0.1348899392635897,0.7531863576980529,0.24731856737378527,-37.75,5.9375,11.875,1.123046875,1.1865234375,-0.119140625
1969/12/31/18:00:41.936,26,1730345728,33517873,RU_myo,-0.5974651208248066,-0.1236555659200182,0.7467551081102777,0.26476695210317813,-121.875,1.75,-7.3125,1.052734375,0.982421875,0.0888671875
1969/12/31/18:00:41.960,27,1730345728,57474597,RU_myo,-0.6019935966518193,-0.11480786325682571,0.7357224793714924,0.2883319223951327,-148.4375,23.9375,-40.625,1.03759765625,0.94140625,0.0869140625
1969/12/31/18:00:41.974,28,1730345728,71723124,RU_myo,-0.6065699260528497,-0.11236619378781407,0.7219268550365371,0.3134778768572586,-137.375,42.75,-75.0625,0.83984375,0.7958984375,0.189453125
1969/12/31/18:00:41.996,29,1730345728,93411843,RU_myo,-0.6138346653517758,-0.11456375329275958,0.7044724776265483,0.33734356124085363,-123.75,74.8125,-89.5,0.814453125,0.703125,0.31201171875
1969/12/31/18:00:42.012,30,1730345728,109203592,RU_myo,-0.6276366022979132,-0.12048571943363616,0.67902919386991,0.36121301297277547,-130.75,136.875,-95.3125,0.7861328125,0.86279296875,0.3671875
1969/12/31/18:00:42.034,31,1730345728,131752799,RU_myo,-0.650332509176554,-0.12500056112562952,0.6421537615247794,0.3861101316800451,-169.9375,210.0,-85.3125,0.88720703125,0.80859375,0.4267578125
1969/12/31/18:00:42.056,32,1730345728,153506254,RU_myo,-0.6799396803278642,-0.1262221955940775,0.5944894512022798,0.41028317155869864,-208.625,270.6875,-67.5,0.9853515625,0.59912109375,0.4775390625
1969/12/31/18:00:42.072,33,1730345728,169340387,RU_myo,-0.7106507992039134,-0.12604087437568334,0.5410296902983328,0.43171288351535514,-219.6875,297.0625,-54.25,0.91064453125,0.49951171875,0.556640625
1969/12/31/18:00:42.095,34,1730345728,192218877,RU_myo,-0.7394275817783406,-0.12469257528461822,0.4863803878820962,0.4484782394475647,-211.5,298.3125,-37.625,0.9443359375,0.474609375,0.6083984375
1969/12/31/18:00:42.116,35,1730345728,213291361,RU_myo,-0.7652715253792317,-0.12341513991998775,0.43262438761269695,0.4603958459032975,-193.9375,291.4375,-24.25,0.91259765625,0.453125,0.658203125
1969/12/31/18:00:42.146,36,1730345728,243551097,RU_myo,-0.7875876279273109,-0.12365565205988312,0.38158693814333133,0.46776748143481944,-166.0,278.9375,-15.125,0.83154296875,0.36767578125,0.67138671875
1969/12/31/18:00:42.162,37,1730345728,259882268,RU_myo,-0.8069468078291018,-0.12695328343427362,0.33520549645241865,0.4694219725447108,-124.8125,264.0625,-0.6875,0.75732421875,0.2880859375,0.689453125
1969/12/31/18:00:42.185,38,1730345728,282390935,RU_myo,-0.8236486689295417,-0.1345791267128299,0.29576891068044153,0.4647709976953286,-72.0625,243.5,18.6875,0.68505859375,0.2744140625,0.68994140625
1969/12/31/18:00:42.206,39,1730345728,303403921,RU_myo,-0.8377225944973634,-0.14917260626240847,0.26337143863432594,0.4545369880671669,-9.5625,229.5,31.875,0.63671875,0.2470703125,0.5908203125
1969/12/31/18:00:42.222,40,1730345728,319831434,RU_myo,-0.8486682222171752,-0.17254117685781764,0.2376026888954666,0.4399281226710823,57.9375,220.25,37.5625,0.60400390625,0.2783203125,0.50732421875
1969/12/31/18:00:42.245,41,1730345728,342364003,RU_myo,-0.8564074301448897,-0.2037408596553091,0.21552096328427095,0.42261884728980237,112.625,219.9375,35.1875,0.548828125,0.27197265625,0.50390625
1969/12/31/18:00:42.266,42,1730345728,363397095,RU_myo,-0.8610106998068374,-0.2394375115433631,0.19714075000893774,0.4030704374795743,150.1875,210.125,38.4375,0.4248046875,0.31640625,0.53076171875
1969/12/31/18:00:42.282,43,1730345728,379770892,RU_myo,-0.8623952115517168,-0.27654017717911034,0.18328186980111857,0.38237126683450146,170.5,187.0625,42.125,0.30029296875,0.5458984375,0.51318359375
1969/12/31/18:00:42.312,44,1730345728,409845570,RU_myo,-0.8619754464000257,-0.31163680728729953,0.16918472969063733,0.36229457267085974,160.1875,181.25,37.0625,0.25439453125,0.6318359375,0.3466796875
1969/12/31/18:00:42.326,45,1730345728,423347368,RU_myo,-0.8622944965469651,-0.3392293892842605,0.15026677877255296,0.3446614539921229,109.0625,185.375,25.1875,0.2216796875,0.6181640625,0.28955078125
1969/12/31/18:00:42.349,46,1730345728,447205630,RU_myo,-0.8638185924041836,-0.3598582929990155,0.12890446316382645,0.32818148599995023,67.8125,181.6875,23.125,0.1689453125,0.62548828125,0.38037109375
1969/12/31/18:00:42.365,47,1730345728,462291310,RU_myo,-0.8642704865195906,-0.3776033825363115,0.11181014979901772,0.31297076865139895,64.25,151.0,26.5,0.06298828125,0.67236328125,0.4892578125
1969/12/31/18:00:42.386,48,1730345728,483445677,RU_myo,-0.8644094284406472,-0.39268589017772537,0.09887335127260104,0.2980238112741425,57.1875,123.8125,35.75,0.00341796875,0.6748046875,0.33740234375
1969/12/31/18:00:42.402,49,1730345728,499922903,RU_myo,-0.867168406611524,-0.4001376741093153,0.0866069797988283,0.2835630924209699,13.1875,107.9375,43.5625,0.0087890625,0.72900390625,0.29736328125
1969/12/31/18:00:42.425,50,1730345728,522332497,RU_myo,-0.8688017607398358,-0.40934692021651414,0.0759247903308996,0.26805601216504105,32.9375,105.375,49.625,-0.0048828125,0.58154296875,0.5390625
1969/12/31/18:00:42.446,51,1730345728,543442339,RU_myo,-0.866142205249332,-0.42559436242714344,0.06738221369848936,0.2532326128940511,72.5,98.5625,44.4375,-0.12060546875,0.68603515625,0.41357421875
1969/12/31/18:00:42.462,52,1730345728,559918680,RU_myo,-0.8623339441367955,-0.4400472600485736,0.06347422336345583,0.24230064110857658,57.3125,54.4375,44.375,-0.279296875,0.67822265625,0.11572265625
1969/12/31/18:00:42.492,53,1730345728,589872093,RU_myo,-0.8600307231697575,-0.45030918143115967,0.06481815541879798,0.23101385900202484,43.6875,27.5,59.125,-0.203125,0.6552734375,0.142578125
1969/12/31/18:00:42.506,54,1730345728,603438115,RU_myo,-0.8566139064030945,-0.46147899866859976,0.07012820651636306,0.21984490850473434,62.125,16.0625,57.9375,-0.04541015625,0.7890625,0.31689453125
1969/12/31/18:00:42.528,55,1730345728,625956359,RU_myo,-0.8531622106955866,-0.4717140515391794,0.07378733190721541,0.21013216191608158,60.0,22.625,42.9375,0.02978515625,0.8779296875,0.43896484375
1969/12/31/18:00:42.545,56,1730345728,642337115,RU_myo,-0.8504882156256941,-0.4798377001255261,0.07476484134492108,0.20207868546370097,44.25,27.5,31.375,-0.01171875,0.984375,0.49462890625
1969/12/31/18:00:42.566,57,1730345728,663347274,RU_myo,-0.8484183054265337,-0.4857608296446142,0.07531459527345821,0.196342830627808,28.5625,18.5,23.875,-0.06787109375,1.05224609375,0.4833984375
1969/12/31/18:00:42.582,58,1730345728,679160460,RU_myo,-0.848670661205032,-0.48686413983693205,0.07696322932610898,0.19182825517205435,10.0625,5.5,27.0625,-0.076171875,0.9345703125,0.58642578125
1969/12/31/18:00:42.605,59,1730345728,702301817,RU_myo,-0.8491678336369235,-0.486808211103867,0.07977160630801833,0.18859545791260646,4.625,-3.1875,22.375,-0.01611328125,0.87646484375,0.55859375
1969/12/31/18:00:42.610,60,1730345728,707750369,RU_myo,-0.8492212121567503,-0.4870479569506157,0.08160189454172596,0.18694585114533033,1.625,-4.625,13.5,-0.056640625,0.8505859375,0.470703125
1969/12/31/18:00:42.633,61,1730345728,730282229,RU_myo,-0.8484103414049232,-0.4884416921274441,0.0833701551225901,0.18620962172695638,9.3125,-7.125,9.5625,-0.08056640625,0.89599609375,0.5009765625
1969/12/31/18:00:42.649,62,1730345728,746904831,RU_myo,-0.8472181058477456,-0.4900449659139507,0.0864246695396879,0.18603276324644685,10.5,-14.0625,8.3125,-0.05810546875,0.9345703125,0.48095703125
1969/12/31/18:00:42.670,63,1730345728,767850630,RU_myo,-0.8471803367408532,-0.48971796138668733,0.08965549417709916,0.18553621667691045,0.8125,-14.0625,10.4375,-0.0126953125,0.8603515625,0.48193359375
1969/12/31/18:00:42.693,64,1730345728,790360102,RU_myo,-0.8468209333246448,-0.4895387896358181,0.0924636910981504,0.1862700892617525,3.625,-15.3125,2.875,-0.00732421875,0.91064453125,0.54443359375
1969/12/31/18:00:42.708,65,1730345728,805276579,RU_myo,-0.8464590679839834,-0.48911406524072704,0.09478339697015835,0.18785788530209105,2.1875,-15.5625,-2.6875,-0.0029296875,0.904296875,0.55078125
1969/12/31/18:00:42.730,66,1730345728,827873635,RU_myo,-0.8466328084406661,-0.4882542147870047,0.09691846163522044,0.1882219998003903,1.0,-10.5,1.75,0.02978515625,0.8408203125,0.552734375
1969/12/31/18:00:42.748,67,1730345728,845718535,RU_myo,-0.8463510386790866,-0.48863390896839737,0.0985080101267791,0.1876779003344769,10.75,-4.6875,4.6875,0.0185546875,0.80712890625,0.56787109375
1969/12/31/18:00:42.768,68,1730345728,865231586,RU_myo,-0.8454960914592544,-0.4904036017378986,0.09948448921378653,0.18639609206067734,20.9375,0.375,7.0,-0.0166015625,0.77880859375,0.58544921875
1969/12/31/18:00:42.798,69,1730345728,895414926,RU_myo,-0.8440749869685998,-0.4932010101007415,0.1004589608496251,0.1849274917219709,27.125,0.9375,8.0625,-0.0302734375,0.8115234375,0.5859375
1969/12/31/18:00:42.813,70,1730345728,910362802,RU_myo,-0.8424026840381417,-0.4965183186965862,0.1013788478617123,0.18316551621492994,24.5625,2.625,8.5,-0.02978515625,0.8193359375,0.4873046875
1969/12/31/18:00:42.828,71,1730345728,925354616,RU_myo,-0.8411078632542457,-0.4992571164225912,0.10186554123585632,0.18139268337505393,17.25,3.5,8.875,-0.0419921875,0.85498046875,0.44873046875
1969/12/31/18:00:42.850,72,1730345728,947809570,RU_myo,-0.8398741143360267,-0.5016906634577529,0.10247428515152886,0.18004713591245392,17.6875,2.625,5.4375,-0.00927734375,0.98046875,0.548828125
1969/12/31/18:00:42.873,73,1730345728,970328726,RU_myo,-0.839685693543164,-0.5019316138754892,0.10283983090712541,0.1800459947632166,3.9375,-1.0,0.0625,0.00341796875,0.9619140625,0.55126953125
1969/12/31/18:00:42.888,74,1730345728,985336212,RU_myo,-0.8407311621403338,-0.5001053461036585,0.10265769979818813,0.18035285547184657,-14.875,-0.8125,-1.4375,0.0146484375,0.90087890625,0.44287109375
1969/12/31/18:00:42.910,75,1730345729,7907098,RU_myo,-0.841512900399617,-0.49887775223864733,0.10222904758988675,0.18035034962872556,-9.0,2.375,-1.5,0.02392578125,0.8681640625,0.4697265625
1969/12/31/18:00:42.929,76,1730345729,26306886,RU_myo,-0.8406543277660745,-0.5004011059499089,0.10174029072063644,0.18041049752261626,14.0625,4.625,-5.875,0.02783203125,0.86328125,0.5537109375
1969/12/31/18:00:42.948,77,1730345729,45242926,RU_myo,-0.8385638954289142,-0.5040294525403576,0.10095237521212781,0.18048136245602295,27.75,7.6875,-10.0625,0.03662109375,0.88134765625,0.5517578125
1969/12/31/18:00:42.970,78,1730345729,67839336,RU_myo,-0.8354894288253082,-0.5092646500196049,0.09917965679312775,0.18102576126056424,34.5,10.5,-13.6875,-0.02197265625,0.86328125,0.494140625
1969/12/31/18:00:42.993,79,1730345729,90276459,RU_myo,-0.8311740206307753,-0.5163557214375355,0.09741178858325139,0.1817620967424327,45.625,10.3125,-15.3125,-0.05908203125,0.86865234375,0.45458984375
1969/12/31/18:00:43.008,80,1730345729,105390729,RU_myo,-0.8254959462055629,-0.5252046297300458,0.09655708590737157,0.18273825234302812,62.0625,6.1875,-15.5,-0.064453125,0.833984375,0.4697265625
1969/12/31/18:00:43.030,81,1730345729,127770206,RU_myo,-0.820089552782063,-0.5333603186546438,0.09643086205221847,0.18352379885507653,58.6875,4.3125,-15.125,-0.02880859375,0.9033203125,0.47705078125
1969/12/31/18:00:43.053,82,1730345729,150376971,RU_myo,-0.8158790457778716,-0.5398302034638894,0.09508823708272919,0.18407324970571967,42.75,8.5625,-13.9375,-0.05517578125,0.91455078125,0.4208984375
1969/12/31/18:00:43.067,83,1730345729,165182126,RU_myo,-0.8130188615692925,-0.5443521677303896,0.09258686382408353,0.18468546468798733,25.5625,11.5,-12.5,-0.1044921875,0.90283203125,0.361328125
1969/12/31/18:00:43.090,84,1730345729,187726614,RU_myo,-0.81100635533665,-0.5475269426343383,0.09026779045325899,0.18529615403387037,18.25,9.5,-10.4375,-0.11083984375,0.86767578125,0.359375
1969/12/31/18:00:43.113,85,1730345729,210232672,RU_myo,-0.8090249216464048,-0.5505397807054373,0.08856244144163965,0.18585295257738987,16.4375,7.4375,-9.6875,-0.08642578125,0.8505859375,0.3232421875
1969/12/31/18:00:43.127,86,1730345729,225199320,RU_myo,-0.8066059769177414,-0.5540533488543626,0.08770375218150683,0.18633232805159386,16.875,4.375,-8.125,-0.07666015625,0.86962890625,0.2607421875
1969/12/31/18:00:43.158,87,1730345729,255382464,RU_myo,-0.8037035303064758,-0.5581003251156148,0.08776774579136636,0.18676585683002855,20.5625,0.125,-6.125,-0.083984375,0.92236328125,0.24658203125
1969/12/31/18:00:43.173,88,1730345729,270323963,RU_myo,-0.8009445525583617,-0.5616926554289875,0.08825465389007019,0.18761743157543276,21.25,-2.75,-7.0625,-0.068359375,0.9228515625,0.28759765625
1969/12/31/18:00:43.190,89,1730345729,288122370,RU_myo,-0.7988381964468805,-0.564356085456819,0.08867842458838089,0.18840350771117123,17.625,-2.125,-7.6875,-0.0390625,0.89013671875,0.30859375
1969/12/31/18:00:43.213,90,1730345729,310713068,RU_myo,-0.7969868302720832,-0.5668262132590624,0.08917121756988157,0.1885962096447187,16.3125,-0.8125,-4.0,-0.04541015625,0.876953125,0.29736328125
1969/12/31/18:00:43.233,91,1730345729,330349866,RU_myo,-0.7953689155991027,-0.56900125845077,0.08977805976414058,0.18858885429720898,15.6875,-1.5,-0.1875,-0.0810546875,0.89404296875,0.31689453125
1969/12/31/18:00:43.248,92,1730345729,345310017,RU_myo,-0.7940093609856144,-0.5708811347163287,0.09014233867607628,0.188462790678215,15.3125,-0.625,1.25,-0.09912109375,0.955078125,0.36669921875
1969/12/31/18:00:43.270,93,1730345729,367791690,RU_myo,-0.7927714850420449,-0.572621608489065,0.08972007722009438,0.18859526436060656,15.125,2.6875,-3.8125,-0.08544921875,0.978515625,0.39794921875
1969/12/31/18:00:43.295,94,1730345729,393138254,RU_myo,-0.791327794933825,-0.5746677862946858,0.08849493310612727,0.18901297091701805,16.0,5.875,-8.5,-0.0810546875,0.9619140625,0.3828125
1969/12/31/18:00:43.307,95,1730345729,405225889,RU_myo,-0.789046916771969,-0.5778084128310822,0.08733958368662498,0.18951041743324287,22.75,5.3125,-7.9375,-0.11376953125,0.951171875,0.3544921875
1969/12/31/18:00:43.330,96,1730345729,427768008,RU_myo,-0.786040615743305,-0.5818250788012211,0.08672751882686827,0.18999490929489157,30.6875,3.8125,-7.75,-0.1103515625,0.9482421875,0.36279296875
1969/12/31/18:00:43.353,97,1730345729,450236717,RU_myo,-0.7824959848625936,-0.586582084900896,0.08593357356575398,0.1903599545110701,35.6875,6.1875,-10.875,-0.08544921875,0.94873046875,0.34765625
1969/12/31/18:00:43.368,98,1730345729,465299202,RU_myo,-0.7786538026494113,-0.5917720074062308,0.0842860088931523,0.19078788110064743,36.0625,9.9375,-14.3125,-0.08935546875,0.92919921875,0.31103515625
1969/12/31/18:00:43.390,99,1730345729,487822781,RU_myo,-0.7746395584719015,-0.59709256228574,0.08276167989977139,0.1912185421283066,35.125,9.0,-13.1875,-0.10986328125,0.93017578125,0.259765625
1969/12/31/18:00:43.413,100,1730345729,510231304,RU_myo,-0.7706574911031908,-0.6022077662718923,0.0811732369658069,0.19194724079508477,29.625,6.75,-12.6875,-0.1572265625,0.9990234375,0.2021484375
1969/12/31/18:00:43.428,101,1730345729,525407722,RU_myo,-0.7673789794800655,-0.6061885010893192,0.07848957031825056,0.1936605028147815,19.625,7.0,-18.5625,-0.17333984375,1.01171875,0.18603515625
1969/12/31/18:00:43.458,102,1730345729,555323153,RU_myo,-0.7641786587401896,-0.6097072758417454,0.07622866742005406,0.19615607453006706,22.375,3.4375,-22.4375,-0.13916015625,0.896484375,0.2216796875
1969/12/31/18:00:43.468,103,1730345729,565678336,RU_myo,-0.7606384965372621,-0.6136740818969888,0.07586244493266604,0.1976817853072448,28.4375,-0.75,-13.875,-0.10498046875,0.83203125,0.19970703125
1969/12/31/18:00:43.491,104,1730345729,588198643,RU_myo,-0.7581498496761545,-0.6164926446287906,0.07568071273534306,0.19853980526457338,17.9375,-0.125,-10.0,-0.11865234375,1.03125,0.208984375
1969/12/31/18:00:43.518,105,1730345729,615331128,RU_myo,-0.7568570000798608,-0.6177041930334869,0.07323831949809152,0.2006119634918557,3.6875,3.3125,-18.125,-0.18505859375,1.15087890625,0.23291015625
1969/12/31/18:00:43.528,106,1730345729,625896608,RU_myo,-0.7575563922803535,-0.6160181008125691,0.06945691060385452,0.20446454351749793,-17.6875,0.375,-27.8125,-0.18408203125,1.1298828125,0.24072265625
1969/12/31/18:00:43.549,107,1730345729,646943094,RU_myo,-0.7601507296800853,-0.6117214583366918,0.06536502862202902,0.20903382169042894,-32.875,-1.5,-31.3125,-0.14697265625,1.06982421875,0.2958984375
1969/12/31/18:00:43.578,108,1730345729,675320541,RU_myo,-0.7633232857776147,-0.6065939183931968,0.060177241526883196,0.2139160563404925,-39.4375,1.6875,-37.6875,-0.1298828125,1.04833984375,0.31396484375
1969/12/31/18:00:43.588,109,1730345729,685724173,RU_myo,-0.7658467306269143,-0.6021552314604031,0.05340419901964855,0.21917083277663768,-38.4375,7.875,-44.6875,-0.15673828125,1.0458984375,0.29638671875
1969/12/31/18:00:43.609,110,1730345729,706776786,RU_myo,-0.7675436151794718,-0.5986669307645864,0.04595740634781666,0.22441617947001574,-30.625,11.4375,-47.75,-0.1748046875,0.9853515625,0.31201171875
1969/12/31/18:00:43.630,111,1730345729,727840048,RU_myo,-0.768026217140215,-0.5965874342455183,0.03875529623999019,0.2296022432359734,-19.1875,12.375,-48.8125,-0.1728515625,0.89501953125,0.3095703125
1969/12/31/18:00:43.648,112,1730345729,745688454,RU_myo,-0.7676763834123569,-0.5956846479650663,0.031920396607144436,0.23412359729446663,-10.75,14.625,-45.8125,-0.177734375,0.87109375,0.30029296875
1969/12/31/18:00:43.669,113,1730345729,766908494,RU_myo,-0.7667294607303465,-0.5956602353520801,0.025144673869370596,0.23808100185537545,-5.1875,16.9375,-43.3125,-0.21728515625,0.89306640625,0.3056640625
1969/12/31/18:00:43.690,114,1730345729,788001159,RU_myo,-0.7655615720705866,-0.595823333058524,0.01855462950725172,0.2420036381455693,-2.875,16.5625,-42.125,-0.234375,0.884765625,0.30810546875
1969/12/31/18:00:43.708,115,1730345729,805819674,RU_myo,-0.7649856722839036,-0.5953143647245249,0.011840371822489013,0.24547410036108666,-8.375,17.125,-39.0625,-0.25927734375,0.86669921875,0.29931640625
1969/12/31/18:00:43.737,116,1730345729,834254541,RU_myo,-0.764933070806924,-0.59416128973952,0.004760614339977664,0.24865054898806416,-14.3125,18.375,-36.5625,-0.2900390625,0.8427734375,0.2822265625
1969/12/31/18:00:43.750,117,1730345729,847838658,RU_myo,-0.7650475401226323,-0.5928736980256283,-0.0019530531538830662,0.25139456065138593,-14.0625,17.625,-31.625,-0.314453125,0.80419921875,0.28857421875
1969/12/31/18:00:43.768,118,1730345729,865727738,RU_myo,-0.7649320678043621,-0.5921464072319413,-0.007446079332333214,0.2533497976107801,-8.5625,16.875,-26.6875,-0.2919921875,0.80126953125,0.30224609375
1969/12/31/18:00:43.795,119,1730345729,892978279,RU_myo,-0.7647395454216919,-0.5916508502248907,-0.012755831204559745,0.25487249335043777,-6.3125,18.1875,-24.25,-0.28759765625,0.78271484375,0.30712890625
1969/12/31/18:00:43.810,120,1730345729,907815388,RU_myo,-0.7640659175168841,-0.592076321258191,-0.01776045866262587,0.2556041267322239,-3.125,19.8125,-20.0,-0.3173828125,0.8056640625,0.26953125
1969/12/31/18:00:43.834,121,1730345729,931937552,RU_myo,-0.7630787511576503,-0.5931055989562543,-0.021910363246068664,0.25584468726328646,2.25,18.25,-13.5625,-0.35009765625,0.80712890625,0.27392578125
1969/12/31/18:00:43.858,122,1730345729,955879802,RU_myo,-0.7614351962944969,-0.5950619720961321,-0.025084150823744645,0.2559071639999058,10.1875,15.5,-9.4375,-0.3642578125,0.78515625,0.26708984375
1969/12/31/18:00:43.870,123,1730345729,967900828,RU_myo,-0.7595461750879795,-0.5974445566843095,-0.027464506130139878,0.2557250681895246,13.625,13.9375,-6.5625,-0.3701171875,0.82470703125,0.26708984375
1969/12/31/18:00:43.888,124,1730345729,985862542,RU_myo,-0.7579740004412453,-0.5994702175967397,-0.029479140205581886,0.25542484836513496,11.5625,12.6875,-5.4375,-0.36572265625,0.845703125,0.27392578125
1969/12/31/18:00:43.911,125,1730345730,8288574,RU_myo,-0.7569804723742471,-0.6008604975025771,-0.030943247560569483,0.25493085810749255,8.125,9.5625,-2.0625,-0.359375,0.81884765625,0.265625
1969/12/31/18:00:43.930,126,1730345730,27831865,RU_myo,-0.756691918163862,-0.6016060846379406,-0.031981494202118384,0.2538988852687261,1.25,7.9375,3.5625,-0.3759765625,0.83349609375,0.2353515625
1969/12/31/18:00:43.948,127,1730345730,45847157,RU_myo,-0.75717641561083,-0.6013589571992188,-0.03289683121185212,0.2529210919144994,-5.0625,6.125,3.375,-0.3642578125,0.85205078125,0.24951171875
1969/12/31/18:00:43.970,128,1730345730,68109146,RU_myo,-0.7584469337545389,-0.6001904841508116,-0.03295737862939173,0.2518798177842586,-6.5,3.4375,5.3125,-0.30908203125,0.8056640625,0.30078125
1969/12/31/18:00:43.990,129,1730345730,87833477,RU_myo,-0.7600503158199354,-0.5992880471401225,-0.03234776097202006,0.24926086001835834,-7.875,5.0,15.75,-0.30517578125,0.78466796875,0.26416015625
1969/12/31/18:00:44.008,130,1730345730,105808320,RU_myo,-0.7623096064160324,-0.5980071676272446,-0.03228677196109537,0.24541608706155854,-14.4375,10.0,21.875,-0.3583984375,0.8505859375,0.26025390625
1969/12/31/18:00:44.031,131,1730345730,128185451,RU_myo,-0.7638719862303908,-0.5975607715869092,-0.032224705075874584,0.2416242564306581,-6.8125,11.625,20.25,-0.34375,0.841796875,0.28515625
1969/12/31/18:00:44.050,132,1730345730,147796183,RU_myo,-0.7643855857990317,-0.59849609185127,-0.03167647069863442,0.23772611439533925,4.1875,12.25,21.0625,-0.318359375,0.81103515625,0.28466796875
1969/12/31/18:00:44.067,133,1730345730,164875397,RU_myo,-0.7649412189242345,-0.5995996596753913,-0.030944322827302872,0.23321155330004786,4.9375,13.75,25.625,-0.345703125,0.84619140625,0.28955078125
1969/12/31/18:00:44.090,134,1730345730,187559046,RU_myo,-0.7654170677873203,-0.6007495573104692,-0.03015038924224035,0.22875234591076282,4.6875,12.875,25.25,-0.349609375,0.896484375,0.29150390625
1969/12/31/18:00:44.111,135,1730345730,208589409,RU_myo,-0.766075100513674,-0.6014714878555018,-0.029356447048046304,0.22472024538649998,1.9375,11.4375,21.6875,-0.32666015625,0.9248046875,0.2880859375
1969/12/31/18:00:44.127,136,1730345730,224974840,RU_myo,-0.7671032842531548,-0.6017082726908944,-0.028684743702679826,0.220628401032314,-3.0625,10.75,22.375,-0.3203125,0.90966796875,0.2646484375
1969/12/31/18:00:44.150,137,1730345730,247428873,RU_myo,-0.7686752616150926,-0.6011951188588742,-0.02795404715100146,0.21661334790153752,-7.1875,9.125,24.3125,-0.3251953125,0.8642578125,0.263671875
1969/12/31/18:00:44.171,138,1730345730,268619109,RU_myo,-0.7699472898164018,-0.6011265047484535,-0.0267330093491545,0.21239925236314533,-3.8125,8.625,25.6875,-0.30029296875,0.86328125,0.2626953125
1969/12/31/18:00:44.187,139,1730345730,285046886,RU_myo,-0.770855952279093,-0.6016704653655818,-0.025206928605800902,0.2076977676647469,0.6875,9.8125,27.0,-0.27783203125,0.88232421875,0.26611328125
1969/12/31/18:00:44.210,140,1730345730,307420587,RU_myo,-0.7716353377452475,-0.6024529319689423,-0.02337549112998733,0.20268931081641756,2.4375,10.3125,29.125,-0.2646484375,0.8828125,0.26953125
1969/12/31/18:00:44.231,141,1730345730,328347239,RU_myo,-0.7724944113446669,-0.6030668624868969,-0.021422575522001903,0.19774685097232528,-0.1875,8.3125,30.0,-0.26904296875,0.91162109375,0.24169921875
1969/12/31/18:00:44.247,142,1730345730,344980515,RU_myo,-0.7737162597906897,-0.6030677891450504,-0.019530583192633958,0.19310864131716826,-3.75,6.9375,28.9375,-0.2646484375,0.89697265625,0.24658203125
1969/12/31/18:00:44.270,143,1730345730,367345483,RU_myo,-0.7749117622682529,-0.6031092411384481,-0.01727179874946173,0.1883419467874166,-3.0625,6.25,29.5625,-0.22265625,0.84912109375,0.23583984375
1969/12/31/18:00:44.291,144,1730345730,388439156,RU_myo,-0.7763280865566106,-0.6029969728914554,-0.014403571417245289,0.18303521474711282,-5.375,5.3125,32.75,-0.20751953125,0.9072265625,0.22705078125
1969/12/31/18:00:44.307,145,1730345730,404976110,RU_myo,-0.77809236377446,-0.6022602122304787,-0.011779106299197647,0.17809032218165147,-11.9375,3.25,31.875,-0.2353515625,1.0087890625,0.21923828125
1969/12/31/18:00:44.330,146,1730345730,427477524,RU_myo,-0.780423778327715,-0.6003776262930893,-0.008971791304776265,0.17437012080099176,-17.6875,-2.625,28.75,-0.2275390625,0.9248046875,0.2197265625
1969/12/31/18:00:44.351,147,1730345730,448556530,RU_myo,-0.7827528400749867,-0.5984931266881341,-0.004943702147842021,0.1705272074206248,-13.125,-6.75,32.6875,-0.1796875,0.833984375,0.24609375
1969/12/31/18:00:44.367,148,1730345730,465004682,RU_myo,-0.7851443487102467,-0.596731677342979,-0.0007324107730506033,0.16570793740269898,-12.75,-3.5625,36.75,-0.1708984375,0.92626953125,0.275390625
1969/12/31/18:00:44.390,149,1730345730,487423657,RU_myo,-0.7875610215747613,-0.5947599314356826,0.0027464542754854506,0.16124738212961245,-17.0,-2.875,33.25,-0.19091796875,1.005859375,0.263671875
1969/12/31/18:00:44.411,150,1730345730,508700750,RU_myo,-0.7896970761969134,-0.5928068398717536,0.006957683490721705,0.15782955707900287,-16.375,-9.0,28.8125,-0.1357421875,0.978515625,0.24609375
1969/12/31/18:00:44.434,151,1730345730,531095153,RU_myo,-0.7918462856491071,-0.5908025316080897,0.012023563918057199,0.15423119807578956,-12.375,-11.125,30.75,-0.0927734375,0.92578125,0.2880859375
1969/12/31/18:00:44.450,152,1730345730,547538623,RU_myo,-0.794157628046319,-0.5885384266254728,0.016295733683397415,0.15056769661775812,-15.4375,-8.25,31.4375,-0.12548828125,0.96044921875,0.2958984375
1969/12/31/18:00:44.471,153,1730345730,568459231,RU_myo,-0.7959284646148046,-0.5868301654222334,0.020079784131452397,0.1473941601138527,-13.625,-8.1875,27.75,-0.1318359375,0.99365234375,0.27294921875
1969/12/31/18:00:44.487,154,1730345730,584368927,RU_myo,-0.7971045637483716,-0.5857436828708363,0.023864309680368553,0.14477274312489566,-6.5625,-8.0625,21.8125,-0.07958984375,0.978515625,0.3095703125
1969/12/31/18:00:44.510,155,1730345730,607472868,RU_myo,-0.7977136739053343,-0.5854376098010686,0.02728217385123829,0.1420259922859765,-0.5,-5.1875,20.25,-0.05712890625,0.95947265625,0.3173828125
1969/12/31/18:00:44.531,156,1730345730,628535663,RU_myo,-0.7978340358449795,-0.5857415270811098,0.030577941551280196,0.1394012345371736,3.5625,-5.3125,21.25,-0.09033203125,0.94775390625,0.302734375
1969/12/31/18:00:44.547,157,1730345730,644328383,RU_myo,-0.7975940854433087,-0.5864159758906726,0.03393497945412302,0.13714370293779574,5.4375,-7.375,20.25,-0.0966796875,0.9853515625,0.30078125
1969/12/31/18:00:44.570,158,1730345730,667569913,RU_myo,-0.7970394160383022,-0.587388570331007,0.037108504858816733,0.135372802264565,9.25,-7.25,15.8125,-0.0673828125,0.97119140625,0.31982421875
1969/12/31/18:00:44.591,159,1730345730,688516498,RU_myo,-0.7963943547769409,-0.5884615195615959,0.03985328482407406,0.13371906133161757,10.0,-5.25,13.3125,-0.0576171875,0.9560546875,0.31298828125
1969/12/31/18:00:44.607,160,1730345730,704197864,RU_myo,-0.7958490682186176,-0.5893189112514549,0.04266092781325258,0.13231601072837137,8.0625,-7.5625,14.6875,-0.07861328125,0.9609375,0.30419921875
1969/12/31/18:00:44.630,161,1730345730,727440258,RU_myo,-0.7956639158129565,-0.5895004803894567,0.04540722201157012,0.1317053563185058,1.1875,-10.625,11.9375,-0.0908203125,1.0361328125,0.291015625
1969/12/31/18:00:44.651,162,1730345730,748456627,RU_myo,-0.7964914002012545,-0.588121925849754,0.04730121342191359,0.1321992622862772,-11.6875,-11.625,5.5,-0.09375,1.03369140625,0.2705078125
1969/12/31/18:00:44.667,163,1730345730,764366820,RU_myo,-0.7979523641128933,-0.5857387821930119,0.04913199121239706,0.1332972283327642,-16.3125,-13.0,1.625,-0.05908203125,0.93896484375,0.283203125
1969/12/31/18:00:44.690,164,1730345730,787550175,RU_myo,-0.7993089844718783,-0.5836127450763668,0.051330089793895056,0.13366575106852577,-9.0,-11.25,4.0625,-0.01806640625,0.8603515625,0.341796875
1969/12/31/18:00:44.711,165,1730345730,808527805,RU_myo,-0.7999613153239278,-0.5826833506826534,0.053587093526696314,0.13293017050244255,-2.25,-7.1875,8.5,-0.02099609375,0.9462890625,0.35107421875
1969/12/31/18:00:44.727,166,1730345730,824229218,RU_myo,-0.8006024162262019,-0.5818068938774495,0.054744653709018376,0.13243689916228527,-6.3125,-4.0,5.8125,-0.06201171875,1.037109375,0.32958984375
1969/12/31/18:00:44.750,167,1730345730,847381737,RU_myo,-0.801306997886447,-0.5806103641475947,0.055784492045716554,0.13299169383765466,-6.6875,-7.4375,2.0,-0.06689453125,0.93359375,0.32666015625
1969/12/31/18:00:44.771,168,1730345730,868540579,RU_myo,-0.8017260051794927,-0.5798109812123311,0.05761490171204637,0.13317342747424277,0.3125,-8.9375,5.125,-0.0400390625,0.8583984375,0.3505859375
1969/12/31/18:00:44.787,169,1730345730,885016772,RU_myo,-0.8018895445218661,-0.5796137456674147,0.05913927761942981,0.13237677312336765,1.8125,-4.0625,8.25,-0.0537109375,0.97021484375,0.35791015625
1969/12/31/18:00:44.810,170,1730345730,907460478,RU_myo,-0.802410615499952,-0.5788440159277055,0.05932479792089095,0.13250425543853317,-6.625,-2.4375,2.0,-0.08544921875,1.0263671875,0.330078125
1969/12/31/18:00:44.832,171,1730345730,929964455,RU_myo,-0.8029057511243788,-0.5778724174569075,0.05963047653732558,0.13360400526121363,-7.75,-6.25,-1.625,-0.07958984375,0.93212890625,0.2978515625
1969/12/31/18:00:44.847,172,1730345730,945006974,RU_myo,-0.8030586219932769,-0.5774234399360384,0.061092998982768675,0.13396516759957766,-0.5,-7.75,2.0625,-0.0341796875,0.8740234375,0.31689453125
1969/12/31/18:00:44.870,173,1730345730,967440601,RU_myo,-0.8026973786039163,-0.5778542260205201,0.06268021653179913,0.13353876706093135,4.8125,-4.8125,4.125,-0.0107421875,0.8896484375,0.310546875
1969/12/31/18:00:44.892,174,1730345730,989920956,RU_myo,-0.8021224143263442,-0.5787341905830464,0.06384264536488785,0.13262912846835687,11.1875,0.125,2.125,0.01953125,1.00341796875,0.40185546875
1969/12/31/18:00:44.913,175,1730345731,10982746,RU_myo,-0.8000914882593425,-0.581773748271268,0.06347510472116227,0.1317718760509513,24.375,7.125,-2.5625,-0.01953125,1.1435546875,0.435546875
1969/12/31/18:00:44.930,176,1730345731,27350330,RU_myo,-0.8011858533673425,-0.5801837984390917,0.061521698803556124,0.13305288034896068,-12.0625,3.125,-9.375,-0.0888671875,1.00927734375,0.35107421875
1969/12/31/18:00:44.952,177,1730345731,49969811,RU_myo,-0.8023450805920292,-0.5780473344201361,0.06078926671760696,0.13567724890887578,-24.125,-7.375,-12.0625,-0.06982421875,0.93994140625,0.18994140625
1969/12/31/18:00:44.973,178,1730345731,71014088,RU_myo,-0.8032021991032982,-0.5764623685813565,0.06109463535732534,0.13720353674652083,-11.3125,-6.3125,-7.8125,-0.01123046875,0.888671875,0.29541015625
1969/12/31/18:00:44.990,179,1730345731,87514227,RU_myo,-0.8037516931386967,-0.5757911362343735,0.06115568353899112,0.1367763341425939,2.6875,2.5625,-0.875,0.005859375,0.8173828125,0.3994140625
1969/12/31/18:00:45.012,180,1730345731,109948249,RU_myo,-0.8029387204591725,-0.5772418986092166,0.061154195644579724,0.1354302995362499,15.0,5.9375,3.9375,-0.03759765625,0.8310546875,0.36328125
1969/12/31/18:00:45.033,181,1730345731,130870177,RU_myo,-0.8010681775357118,-0.5801869787165316,0.06103376590748281,0.13396911616692475,19.0,7.0625,3.1875,-0.05224609375,0.97998046875,0.31640625
1969/12/31/18:00:45.050,182,1730345731,147411086,RU_myo,-0.7997321659877028,-0.5823890962264108,0.0602408339944946,0.13274955819455497,14.875,9.875,-1.75,-0.02001953125,1.0576171875,0.357421875
1969/12/31/18:00:45.072,183,1730345731,169947027,RU_myo,-0.7996727433094966,-0.5828785451538462,0.058959232944357634,0.13152913767607732,2.0625,10.875,-0.875,-0.03125,0.919921875,0.3076171875
1969/12/31/18:00:45.093,184,1730345731,190926804,RU_myo,-0.8006986402897466,-0.5818935007639641,0.057737702089648624,0.13018448050446144,-12.125,9.1875,4.125,-0.06494140625,0.8515625,0.23046875
1969/12/31/18:00:45.110,185,1730345731,207261673,RU_myo,-0.8007006267581165,-0.5822001127102426,0.05749371067963608,0.12890309655561719,-5.9375,5.625,3.625,-0.03515625,0.90869140625,0.18798828125
1969/12/31/18:00:45.132,186,1730345731,229867311,RU_myo,-0.8005754922139477,-0.5826251161602763,0.05670005582578009,0.12810916811443745,-9.1875,5.8125,0.6875,-0.05859375,0.98095703125,0.15771484375
1969/12/31/18:00:45.153,187,1730345731,251045960,RU_myo,-0.8020446625175415,-0.5804921075416131,0.05615106076524908,0.1288422709515661,-30.875,-2.0625,-3.125,-0.0654296875,0.953125,0.08984375
1969/12/31/18:00:45.170,188,1730345731,267476316,RU_myo,-0.8049887683323791,-0.5758028690914903,0.05664035006539145,0.131285983826139,-50.75,-13.4375,-8.5,-0.029296875,1.0478515625,0.08154296875
1969/12/31/18:00:45.192,189,1730345731,290091393,RU_myo,-0.8091100830168517,-0.5688244681087017,0.057492773493390235,0.13591975219721875,-56.75,-22.5625,-16.625,-0.02587890625,1.09814453125,0.25390625
1969/12/31/18:00:45.213,190,1730345731,311055116,RU_myo,-0.8151102052702383,-0.5587060141552798,0.05779927850175332,0.14178217947156596,-71.9375,-25.0625,-22.5625,-0.00537109375,1.08935546875,0.37646484375
1969/12/31/18:00:45.230,191,1730345731,327595664,RU_myo,-0.8245720933916109,-0.5425940718172776,0.05511388603498332,0.15044931237678172,-114.4375,-25.125,-37.0,-0.0400390625,1.2275390625,0.29345703125
1969/12/31/18:00:45.252,192,1730345731,349963469,RU_myo,-0.8378513576055904,-0.5178590303965206,0.05169435459585774,0.16478719882977083,-174.0625,-46.5,-58.875,-0.1494140625,1.2197265625,0.083984375
1969/12/31/18:00:45.273,193,1730345731,370996861,RU_myo,-0.8530626843331046,-0.486252443734839,0.04882665432256448,0.1829168537559072,-213.5625,-66.4375,-71.8125,-0.1201171875,1.03466796875,0.0625
1969/12/31/18:00:45.290,194,1730345731,387395976,RU_myo,-0.8667874930261221,-0.4528632022429113,0.04809382794709085,0.20317811324348406,-213.8125,-83.4375,-79.5625,0.037109375,0.80517578125,0.1943359375
1969/12/31/18:00:45.312,195,1730345731,409870180,RU_myo,-0.8776501748491058,-0.4206983765810074,0.04961958220808922,0.22423412673126666,-194.4375,-94.625,-82.25,0.1494140625,0.572265625,0.2890625
1969/12/31/18:00:45.333,196,1730345731,430937313,RU_myo,-0.8847013418690414,-0.3935532426610265,0.053893845110063024,0.2439566239013838,-154.5,-99.125,-75.4375,0.19384765625,0.42822265625,0.34228515625
1969/12/31/18:00:45.349,197,1730345731,446819826,RU_myo,-0.8871405579696822,-0.3750587360663018,0.06280479079124891,0.26147300655948524,-92.1875,-107.125,-62.1875,0.17529296875,0.3583984375,0.36767578125
1969/12/31/18:00:45.372,198,1730345731,469900148,RU_myo,-0.8850011278255304,-0.3652308102695154,0.07824630661188482,0.2779513886977562,-27.8125,-127.25,-52.3125,0.14697265625,0.3310546875,0.3740234375
1969/12/31/18:00:45.394,199,1730345731,491067861,RU_myo,-0.8793668339792902,-0.3613777779005676,0.10039966975957332,0.2933257221060847,20.625,-150.8125,-41.4375,0.17333984375,0.384765625,0.38623046875
1969/12/31/18:00:45.410,200,1730345731,507487925,RU_myo,-0.8712447307208097,-0.3601551773018212,0.12810806933681118,0.30791100991148757,48.375,-174.0,-31.8125,0.23779296875,0.4814453125,0.42333984375
1969/12/31/18:00:45.432,201,1730345731,529952971,RU_myo,-0.862322345089466,-0.3583193777351727,0.15807310310579073,0.32096774101673875,50.375,-183.5625,-20.75,0.25634765625,0.60400390625,0.416015625
1969/12/31/18:00:45.461,202,1730345731,558479842,RU_myo,-0.8538551266887717,-0.35191770267958955,0.1895082321921827,0.3334246288134925,30.375,-198.375,-8.9375,0.2373046875,0.59228515625,0.380859375
1969/12/31/18:00:45.469,203,1730345731,566849440,RU_myo,-0.8462256555795756,-0.3396498934944348,0.22277126886876678,0.34483771756398146,5.75,-214.8125,7.25,0.3251953125,0.47802734375,0.38671875
1969/12/31/18:00:45.492,204,1730345731,589794629,RU_myo,-0.8387763964908429,-0.322681423870122,0.25804748631036045,0.35460167820794564,-10.125,-229.375,23.9375,0.46044921875,0.427734375,0.419921875
1969/12/31/18:00:45.513,205,1730345731,610999723,RU_myo,-0.8311750904197348,-0.30078064661392667,0.2959588789429648,0.3620598205588095,-22.1875,-248.25,46.0,0.56787109375,0.3623046875,0.548828125
1969/12/31/18:00:45.529,206,1730345731,626832109,RU_myo,-0.8204628362631985,-0.27678337889262855,0.33867055556233644,0.3681493586505701,-16.0625,-278.125,57.5625,0.66162109375,0.4033203125,0.46728515625
1969/12/31/18:00:45.552,207,1730345731,650011093,RU_myo,-0.8080452478541049,-0.24945093496334517,0.38238563923302116,0.37231482830350027,-22.375,-291.3125,71.5625,0.6767578125,0.39013671875,0.521484375
1969/12/31/18:00:45.573,208,1730345731,670911054,RU_myo,-0.7941231196010018,-0.2197250965001619,0.42535116597489675,0.3743871505366647,-27.3125,-295.375,83.5625,0.681640625,0.43115234375,0.61865234375
1969/12/31/18:00:45.589,209,1730345731,686871120,RU_myo,-0.7780119224882136,-0.1911613196228983,0.4675273653612392,0.37359464796033226,-13.6875,-292.625,88.625,0.7529296875,0.51318359375,0.6962890625
1969/12/31/18:00:45.619,210,1730345731,716138449,RU_myo,-0.7608748956898065,-0.16400375779869325,0.5080637439212217,0.3688406060206562,1.9375,-281.1875,97.4375,0.8896484375,0.46533203125,0.73046875
1969/12/31/18:00:45.633,211,1730345731,730885674,RU_myo,-0.7429082830387691,-0.14031762592064823,0.5461950562696307,0.36065108811009583,22.0,-263.625,99.5,1.0126953125,0.57080078125,0.705078125
1969/12/31/18:00:45.649,212,1730345731,746716088,RU_myo,-0.7238123721966964,-0.12158143565358116,0.5813570153616269,0.35119456864995285,41.25,-243.4375,85.375,1.0947265625,0.65478515625,0.6513671875
1969/12/31/18:00:45.680,213,1730345731,777471171,RU_myo,-0.7038774016126264,-0.1053496700644635,0.6136648799699397,0.3418676141547277,45.75,-230.6875,73.9375,1.0791015625,0.6767578125,0.5771484375
1969/12/31/18:00:45.693,214,1730345731,790979481,RU_myo,-0.6836780909560732,-0.08862606803573059,0.6435155890500741,0.33259190408174655,38.875,-222.875,73.3125,1.15380859375,0.6748046875,0.50390625
1969/12/31/18:00:45.709,215,1730345731,806767263,RU_myo,-0.6652984976925745,-0.07226728635486314,0.6697541665303322,0.3218457778287106,37.875,-200.75,79.4375,1.20849609375,0.66259765625,0.42578125
1969/12/31/18:00:45.732,216,1730345731,829944473,RU_myo,-0.6482575218957507,-0.0582278199687926,0.6918368336962937,0.31262357849072925,32.375,-176.25,66.1875,1.197265625,0.67724609375,0.35205078125
1969/12/31/18:00:45.770,217,1730345731,868062296,RU_myo,-0.632432774037703,-0.04516505045241269,0.7096405967705437,0.3072444107803317,13.8125,-156.875,51.4375,1.1552734375,0.77880859375,0.41796875
1969/12/31/18:00:45.783,218,1730345731,880913018,RU_myo,-0.6197602106236977,-0.03241015086086109,0.7219345845240395,0.3060348331758145,-13.0,-124.6875,39.875,1.0830078125,0.76708984375,0.35693359375
1969/12/31/18:00:45.792,219,1730345731,889976159,RU_myo,-0.6136512466132601,-0.022583147130187612,0.7252242005429438,0.3114032882654519,-35.0625,-82.0625,20.9375,1.01904296875,0.70556640625,0.3740234375
1969/12/31/18:00:45.815,220,1730345731,912430031,RU_myo,-0.6118453426670409,-0.01739584224462357,0.7239722275911585,0.31813027992623877,-32.5625,-40.6875,-0.75,0.98291015625,0.61474609375,0.390625
1969/12/31/18:00:45.836,221,1730345731,933464802,RU_myo,-0.6126903474975939,-0.016907274980756476,0.721458448637334,0.3222148181350665,-9.3125,-14.5625,-14.4375,0.962890625,0.47900390625,0.36669921875
1969/12/31/18:00:45.852,222,1730345731,949974173,RU_myo,-0.6151094529705504,-0.021911519509468902,0.7187466678092083,0.32336275866620123,18.0,8.8125,-25.6875,0.9345703125,0.4462890625,0.28515625
1969/12/31/18:00:45.875,223,1730345731,972381005,RU_myo,-0.618182996173709,-0.031861327409426946,0.7157812002497123,0.32325208804659983,39.3125,24.875,-32.3125,0.8857421875,0.56298828125,0.2431640625
1969/12/31/18:00:45.903,224,1730345732,771937,RU_myo,-0.6218919204321013,-0.042480790717513255,0.712590850038746,0.3219628894179345,43.625,34.0625,-31.875,0.916015625,0.5673828125,0.1826171875
1969/12/31/18:00:45.912,225,1730345732,9732279,RU_myo,-0.62569510403405,-0.05194288689230091,0.7092554003390559,0.32056879196047516,36.5625,37.75,-32.5,0.95556640625,0.49755859375,0.1083984375
1969/12/31/18:00:45.935,226,1730345732,32708159,RU_myo,-0.6296965988504354,-0.0614620989669854,0.7060512024330557,0.31811366416676057,38.6875,43.0625,-32.625,0.970703125,0.4501953125,0.044921875
1969/12/31/18:00:45.957,227,1730345732,54826035,RU_myo,-0.6331943619866475,-0.07043631132953453,0.7041800033005545,0.31342327441694956,45.4375,40.6875,-26.9375,0.97265625,0.38623046875,-0.03173828125
1969/12/31/18:00:45.980,228,1730345732,77816029,RU_myo,-0.6367233065882645,-0.07965144891657258,0.7029469250361429,0.3067648906166236,55.0,40.8125,-20.4375,0.91162109375,0.349609375,-0.04345703125
1969/12/31/18:00:45.995,229,1730345732,92312950,RU_myo,-0.6379431308054944,-0.09289604334921187,0.7042276926170871,0.2974260310385739,79.1875,40.6875,-18.25,0.72900390625,0.4345703125,-0.23095703125
1969/12/31/18:00:46.016,230,1730345732,113409548,RU_myo,-0.6362343913732607,-0.10540836472578868,0.708256319790418,0.2871721806802755,85.75,19.6875,-15.75,0.724609375,0.43017578125,-0.265625
1969/12/31/18:00:46.032,231,1730345732,130081856,RU_myo,-0.6344085355004109,-0.11462567150950276,0.7128398389560611,0.2761270169909427,76.5,13.875,-2.8125,0.84130859375,0.43994140625,-0.3134765625
1969/12/31/18:00:46.062,232,1730345732,159837073,RU_myo,-0.6344068291152223,-0.12140034472870667,0.7153403922676934,0.26660467861990483,58.5,20.875,-0.25,1.0146484375,0.4970703125,-0.28125
1969/12/31/18:00:46.076,233,1730345732,173663471,RU_myo,-0.6349115254494007,-0.12982665012794417,0.7167627421027025,0.25745595215781314,67.0,20.4375,-3.875,0.9111328125,0.5009765625,-0.1376953125
1969/12/31/18:00:46.100,234,1730345732,197392008,RU_myo,-0.6352634067983057,-0.13653768649191103,0.7174789918249505,0.251041352052405,50.8125,14.6875,1.1875,0.77685546875,0.56396484375,-0.083984375
1969/12/31/18:00:46.115,235,1730345732,212448432,RU_myo,-0.6353765008447804,-0.13806163735935573,0.7178961001860045,0.24871846694932565,13.6875,7.3125,8.625,0.72998046875,0.56298828125,-0.130859375
1969/12/31/18:00:46.144,236,1730345732,241058212,RU_myo,-0.6350495461107517,-0.13549351200056403,0.7183597460570444,0.2496254342713094,-16.9375,0.1875,10.9375,0.72119140625,0.51708984375,-0.1904296875
1969/12/31/18:00:46.152,237,1730345732,250039622,RU_myo,-0.634052925211322,-0.13135174191901858,0.7193216907600529,0.25159473986533204,-26.25,-6.6875,8.25,0.74951171875,0.45068359375,-0.20263671875
1969/12/31/18:00:46.183,238,1730345732,280038883,RU_myo,-0.6330092415785985,-0.1281765892696034,0.7205355411084134,0.2523858079189572,-16.5625,-7.8125,4.8125,0.81396484375,0.42529296875,-0.17138671875
1969/12/31/18:00:46.204,239,1730345732,301092669,RU_myo,-0.6327400882073443,-0.1269508424299485,0.7210563713785633,0.2521927312118016,-4.875,-2.1875,0.8125,0.8974609375,0.4775390625,-0.11865234375
1969/12/31/18:00:46.212,240,1730345732,310014354,RU_myo,-0.6330619032811708,-0.12744246568174747,0.7207701519328333,0.2519552195087421,2.125,3.1875,-1.5625,0.89794921875,0.53955078125,-0.076171875
1969/12/31/18:00:46.235,241,1730345732,332426986,RU_myo,-0.6333114723680937,-0.12750459384897336,0.7208373639810318,0.2511028717542731,3.6875,1.3125,3.3125,0.85205078125,0.52978515625,-0.0693359375
1969/12/31/18:00:46.263,242,1730345732,361024498,RU_myo,-0.6333696558464501,-0.12524569083520434,0.7216275841835386,0.24981998664156502,-2.0625,-4.9375,12.375,0.85546875,0.48046875,-0.07421875
1969/12/31/18:00:46.273,243,1730345732,370067283,RU_myo,-0.6335071862291931,-0.12176961523530593,0.7224997170628151,0.24866637216473,-6.75,-7.3125,14.6875,0.89599609375,0.46435546875,-0.06884765625
1969/12/31/18:00:46.295,244,1730345732,392498108,RU_myo,-0.6337314186901554,-0.11932436902044243,0.7229652946532689,0.24792613143787068,-4.75,-5.0,10.75,0.89990234375,0.48876953125,-0.05517578125
1969/12/31/18:00:46.316,245,1730345732,413398625,RU_myo,-0.6337775279136868,-0.11834501412024641,0.7231924044924186,0.24761512237536856,-1.5,-2.5625,6.25,0.87939453125,0.5341796875,-0.0673828125
1969/12/31/18:00:46.340,246,1730345732,437415540,RU_myo,-0.6336552096136931,-0.11797876326172885,0.7231921189282076,0.24810329677130252,-3.9375,0.0625,3.625,0.84814453125,0.5732421875,-0.09716796875
1969/12/31/18:00:46.355,247,1730345732,452476699,RU_myo,-0.6332402815878566,-0.11743173993012397,0.723328248394958,0.24902364808467037,-6.25,-1.5625,2.0625,0.82470703125,0.54638671875,-0.1064453125
