time,.header.seq,.header.stamp.secs,.header.stamp.nsecs,.header.frame_id,.orientation.x,.orientation.y,.orientation.z,.orientation.w,.angular_velocity.x,.angular_velocity.y,.angular_velocity.z,.linear_acceleration.x,.linear_acceleration.y,.linear_acceleration.z
1969/12/31/18:00:37.063,1,1730345322,216289826,RU_myo,-0.6477121588651816,-0.5080011588988792,0.5526793816928213,-0.13018941150201963,-23.3125,-13.5,1.3125,0.81982421875,0.51416015625,-0.19287109375
1969/12/31/18:00:37.076,2,1730345322,229710760,RU_myo,-0.6473289922177632,-0.5067671716371948,0.55541144910255,-0.1251811958361901,-24.8125,-18.6875,-3.125,0.80810546875,0.548828125,-0.22900390625
1969/12/31/18:00:37.092,3,1730345322,245471962,RU_myo,-0.6471462644115036,-0.5057298827608901,0.5580362440360631,-0.11846749969091092,-29.0625,-23.9375,-9.625,0.81982421875,0.58251953125,-0.21923828125
1969/12/31/18:00:37.115,4,1730345322,268727427,RU_myo,-0.6472423852481939,-0.5050382591163417,0.5602720505967392,-0.11004036026426153,-34.4375,-24.9375,-15.75,0.8349609375,0.64697265625,-0.25390625
1969/12/31/18:00:37.136,5,1730345322,289720714,RU_myo,-0.648055686304417,-0.5034668823060027,0.5624864574290362,-0.10076661688534493,-40.0,-29.5625,-19.8125,0.912109375,0.654296875,-0.1875
1969/12/31/18:00:37.152,6,1730345322,305411937,RU_myo,-0.65097422497492,-0.49881983318207584,0.5648571584607992,-0.09136587425346476,-56.875,-25.5,-16.625,0.95654296875,0.6025390625,-0.12939453125
1969/12/31/18:00:37.175,7,1730345322,328769461,RU_myo,-0.6569718723948322,-0.49138615242017786,0.5656647448304817,-0.08337268466103129,-66.875,-9.8125,-10.625,1.00244140625,0.59716796875,-0.02587890625
1969/12/31/18:00:37.196,8,1730345322,349774715,RU_myo,-0.66447119733162,-0.4850328469913093,0.5633997999970777,-0.076169748715887,-60.9375,6.0,-16.0625,0.94287109375,0.64501953125,0.0419921875
1969/12/31/18:00:37.212,9,1730345322,365489091,RU_myo,-0.6739259913421818,-0.4777050112511553,0.5591840185362316,-0.07024894186151523,-61.9375,19.3125,-17.0,0.94677734375,0.61669921875,0.14697265625
1969/12/31/18:00:37.235,10,1730345322,388661915,RU_myo,-0.6854536688770432,-0.470070711218145,0.5520370790662323,-0.06664726261363468,-58.4375,40.875,-15.375,0.94384765625,0.62646484375,0.22998046875
1969/12/31/18:00:37.256,11,1730345322,409854540,RU_myo,-0.6981210248336049,-0.4631353677598701,0.54217599786649,-0.06463631450417796,-51.3125,57.9375,-18.6875,0.92919921875,0.6298828125,0.29248046875
1969/12/31/18:00:37.272,12,1730345322,425538599,RU_myo,-0.7111829268918307,-0.4579476056015625,0.5294199028372588,-0.06494152370519292,-37.8125,77.5,-24.0625,1.00537109375,0.67626953125,0.31396484375
1969/12/31/18:00:37.295,13,1730345322,448799436,RU_myo,-0.7252037414042416,-0.45342018135769324,0.5139657217947415,-0.06579444817655045,-36.5,95.4375,-33.4375,1.02685546875,0.66748046875,0.32177734375
1969/12/31/18:00:37.318,14,1730345322,471259875,RU_myo,-0.7395123997734,-0.44922509593365995,0.4968331903396728,-0.06689547624229501,-42.1875,114.1875,-34.1875,0.96826171875,0.63916015625,0.38525390625
1969/12/31/18:00:37.339,15,1730345322,492203400,RU_myo,-0.7570868540901937,-0.44122709353579576,0.4769940152140329,-0.06793273690764154,-65.6875,136.5625,-33.1875,0.92822265625,0.54345703125,0.42822265625
1969/12/31/18:00:37.355,16,1730345322,508821690,RU_myo,-0.7776269937643882,-0.42979744840191675,0.4533563542643337,-0.07098188476163436,-81.3125,168.1875,-26.625,0.93017578125,0.4765625,0.45556640625
1969/12/31/18:00:37.378,17,1730345322,531279603,RU_myo,-0.7998643549627623,-0.41516042292687594,0.42675708278516855,-0.07574449939021656,-93.9375,192.0,-19.25,0.9267578125,0.4609375,0.513671875
1969/12/31/18:00:37.399,18,1730345322,552244949,RU_myo,-0.8230867127469429,-0.3968955133466832,0.39781100353585747,-0.08214998630857075,-108.5,212.375,-9.125,0.970703125,0.4765625,0.5341796875
1969/12/31/18:00:37.415,19,1730345322,568774918,RU_myo,-0.8462063818869786,-0.37601713081901733,0.36661822834439817,-0.09020505102264366,-116.75,228.75,0.5,0.9228515625,0.4833984375,0.54736328125
1969/12/31/18:00:37.438,20,1730345322,591320292,RU_myo,-0.8683913019813314,-0.3525322013103859,0.3339168409572578,-0.10058397987526245,-121.9375,241.25,14.4375,0.896484375,0.458984375,0.6025390625
1969/12/31/18:00:37.459,21,1730345322,612393388,RU_myo,-0.8886552912103256,-0.3280578427373283,0.29998219480073834,-0.1126077618326271,-119.125,248.5,22.875,0.88818359375,0.4326171875,0.64111328125
1969/12/31/18:00:37.475,22,1730345322,628899176,RU_myo,-0.9057466127210462,-0.30535379403257373,0.26519333101569714,-0.12670687115962884,-101.0625,252.25,31.0,0.87158203125,0.40673828125,0.61865234375
1969/12/31/18:00:37.498,23,1730345322,651221528,RU_myo,-0.9193861607082962,-0.2866673391427819,0.2285648680199528,-0.14250973747038445,-69.4375,257.0,32.5625,0.84326171875,0.34814453125,0.65087890625
1969/12/31/18:00:37.519,24,1730345322,672270358,RU_myo,-0.9286282224761799,-0.27385835256330066,0.1928665910630778,-0.1595421737464827,-31.0625,244.1875,37.25,0.78076171875,0.357421875,0.69287109375
1969/12/31/18:00:37.535,25,1730345322,688758251,RU_myo,-0.9338819972104894,-0.26690190012427095,0.15789508703898672,-0.1780363234993136,7.6875,232.5625,42.9375,0.71337890625,0.33447265625,0.69384765625
1969/12/31/18:00:37.558,26,1730345322,711292192,RU_myo,-0.9348291929380098,-0.2668935209713336,0.12505484209244513,-0.19804927408003145,50.875,212.625,53.0625,0.642578125,0.32470703125,0.69580078125
1969/12/31/18:00:37.579,27,1730345322,732312344,RU_myo,-0.9320120340788657,-0.2747638122862323,0.09301200575837805,-0.2172721394355813,96.1875,195.6875,48.375,0.60400390625,0.3720703125,0.6259765625
1969/12/31/18:00:37.595,28,1730345322,748671189,RU_myo,-0.9266750895674368,-0.2864923184106928,0.05981305326852981,-0.23583432431591753,121.6875,194.25,44.375,0.53076171875,0.3955078125,0.58984375
1969/12/31/18:00:37.618,29,1730345322,771288491,RU_myo,-0.9191988173115748,-0.30070331139327594,0.025572292972149913,-0.2529765020753255,138.9375,193.0,37.75,0.4599609375,0.43212890625,0.57763671875
1969/12/31/18:00:37.639,30,1730345322,792167039,RU_myo,-0.9097385101679349,-0.3162662659124003,-0.008605469605103905,-0.2688446355353383,149.6875,187.4375,33.5625,0.3837890625,0.443359375,0.54736328125
1969/12/31/18:00:37.655,31,1730345322,808771970,RU_myo,-0.8991148165120852,-0.330668210416948,-0.042599928178484625,-0.28361298889028375,144.5,185.8125,30.0625,0.31982421875,0.4658203125,0.45947265625
1969/12/31/18:00:37.678,32,1730345322,831221980,RU_myo,-0.8874766241035629,-0.34337002181463755,-0.0759857229220092,-0.29783962077060633,136.875,183.9375,29.6875,0.251953125,0.50927734375,0.48046875
1969/12/31/18:00:37.699,33,1730345322,852333386,RU_myo,-0.8747591077228168,-0.3550180513237721,-0.10686549903179043,-0.3119911085382711,130.75,173.0625,36.1875,0.197265625,0.54736328125,0.560546875
1969/12/31/18:00:37.715,34,1730345322,868713026,RU_myo,-0.8620108158274612,-0.3647860837015531,-0.13390340766960138,-0.32548171062077674,112.3125,155.1875,39.5,0.16455078125,0.68212890625,0.46484375
1969/12/31/18:00:37.738,35,1730345322,891164244,RU_myo,-0.8515734783978064,-0.3682644856770848,-0.1581327945623677,-0.33793179602154766,71.0,148.625,31.1875,0.1162109375,0.7216796875,0.36376953125
1969/12/31/18:00:37.759,36,1730345322,912184956,RU_myo,-0.8428845602091404,-0.3670951147388299,-0.17967215590874733,-0.3500067303453349,40.0,141.625,28.3125,0.03955078125,0.72705078125,0.39990234375
1969/12/31/18:00:37.775,37,1730345322,928688076,RU_myo,-0.8339540089105959,-0.36546520823745965,-0.19902839747200332,-0.36241356154209003,36.6875,132.875,34.4375,0.02197265625,0.58349609375,0.50537109375
1969/12/31/18:00:37.798,38,1730345322,951161461,RU_myo,-0.8223990284372882,-0.36905728571133817,-0.21739408825926682,-0.3744280548766429,66.0625,119.6875,46.125,0.02001953125,0.54931640625,0.4697265625
1969/12/31/18:00:37.819,39,1730345322,972265977,RU_myo,-0.808924218869968,-0.37632614558263333,-0.23552426140178107,-0.3854199820555189,86.1875,110.1875,50.375,0.0009765625,0.6728515625,0.3740234375
1969/12/31/18:00:37.835,40,1730345322,988761781,RU_myo,-0.7948891885433095,-0.38511599967047627,-0.25365167902226615,-0.39433192929808986,96.0625,102.625,44.6875,-0.0810546875,0.77978515625,0.34423828125
1969/12/31/18:00:37.858,41,1730345323,11056850,RU_myo,-0.7808436753298434,-0.39536543135741176,-0.2706159806481574,-0.40091934525885115,104.4375,88.625,39.5625,-0.13037109375,0.77978515625,0.35595703125
1969/12/31/18:00:37.879,42,1730345323,32120417,RU_myo,-0.7672187198805389,-0.4069536571604036,-0.2853802190884894,-0.40536685525785854,106.4375,69.9375,36.125,-0.12353515625,0.87060546875,0.2939453125
1969/12/31/18:00:37.895,43,1730345323,48675008,RU_myo,-0.7544213669541009,-0.41819393304502056,-0.298326320012268,-0.4086118478891437,90.3125,58.0625,31.0625,-0.09521484375,0.923828125,0.279296875
1969/12/31/18:00:37.924,44,1730345323,77383381,RU_myo,-0.7431207779865857,-0.4278315254341299,-0.3085757764044167,-0.411719182678836,80.75,48.625,30.4375,-0.08544921875,0.8828125,0.333984375
1969/12/31/18:00:37.939,45,1730345323,92263032,RU_myo,-0.7329209711906144,-0.4371648694011467,-0.31644560210036937,-0.4142172230386127,66.875,34.0,32.1875,-0.11328125,0.96533203125,0.25439453125
1969/12/31/18:00:37.955,46,1730345323,108053531,RU_myo,-0.7262336060924162,-0.44328386259763164,-0.3217668351390216,-0.4153917071237066,35.8125,19.75,21.0625,-0.1552734375,1.1044921875,0.22119140625
1969/12/31/18:00:37.978,47,1730345323,131296729,RU_myo,-0.7234835886941369,-0.44553991880101224,-0.3247558778000255,-0.4154507160655466,7.75,8.875,7.25,-0.17822265625,1.06787109375,0.216796875
1969/12/31/18:00:37.999,48,1730345323,152338295,RU_myo,-0.7225845564718155,-0.4465499324074556,-0.3243086429975699,-0.41627949828498767,-1.25,-1.25,9.625,-0.11083984375,0.90380859375,0.30810546875
1969/12/31/18:00:38.015,49,1730345323,168081574,RU_myo,-0.7221257914615976,-0.4474225978029895,-0.3218195823509976,-0.4180664022576017,-1.4375,-6.25,14.75,-0.0625,0.85546875,0.4130859375
1969/12/31/18:00:38.038,50,1730345323,191224680,RU_myo,-0.722104600694898,-0.44850800460672796,-0.3194910061390966,-0.41872546191410537,-2.3125,-10.1875,10.125,-0.07861328125,0.95751953125,0.4091796875
1969/12/31/18:00:38.067,51,1730345323,219884573,RU_myo,-0.7225432578015378,-0.44906438811586413,-0.3175430839041643,-0.4188541581461233,-3.6875,-9.375,4.625,-0.068359375,0.90869140625,0.39794921875
1969/12/31/18:00:38.075,52,1730345323,228723186,RU_myo,-0.7217792875483054,-0.4513409294283544,-0.31505366838528265,-0.4196036362163538,7.25,-9.8125,10.1875,0.00830078125,0.8662109375,0.42236328125
1969/12/31/18:00:38.105,53,1730345323,258748390,RU_myo,-0.7201051974821914,-0.45388781707560444,-0.31443189909553776,-0.42019868502965396,17.0625,-2.0,8.0,0.00439453125,0.87255859375,0.4443359375
1969/12/31/18:00:38.119,54,1730345323,272456964,RU_myo,-0.7179092420545504,-0.4564518593323117,-0.31662952884289786,-0.4195280226033307,22.375,4.9375,1.6875,-0.0751953125,0.8916015625,0.3642578125
1969/12/31/18:00:38.135,55,1730345323,288038682,RU_myo,-0.7155428072791127,-0.4596953620288533,-0.31864969266498183,-0.41849855250024526,23.625,0.875,5.125,-0.1171875,0.8994140625,0.32470703125
1969/12/31/18:00:38.158,56,1730345323,311282943,RU_myo,-0.7132197657965927,-0.4630496631095969,-0.319563468570166,-0.41806909085287186,24.375,-2.0,9.6875,-0.09716796875,0.86181640625,0.36669921875
1969/12/31/18:00:38.180,57,1730345323,333694989,RU_myo,-0.7111390242326702,-0.46573136748365135,-0.3199881483051742,-0.41830989290170967,19.5,-0.5,10.75,-0.0732421875,0.84130859375,0.36328125
1969/12/31/18:00:38.195,58,1730345323,347997088,RU_myo,-0.7094905646129025,-0.4681722254748882,-0.3186451817500184,-0.4194080997866551,10.75,-5.25,15.5,-0.04736328125,0.9130859375,0.3759765625
1969/12/31/18:00:38.218,59,1730345323,371263146,RU_myo,-0.7082775113697627,-0.46976406764438283,-0.31632937022227314,-0.4214266450674891,3.875,-4.375,17.875,-0.02001953125,1.0126953125,0.4462890625
1969/12/31/18:00:38.239,60,1730345323,392286742,RU_myo,-0.708267789526415,-0.4690252445075829,-0.31443305916760794,-0.42367901722467666,-8.0,0.6875,12.5,-0.04296875,0.98388671875,0.43310546875
1969/12/31/18:00:38.255,61,1730345323,408063463,RU_myo,-0.7088146181352123,-0.46749784526569016,-0.3133334122185448,-0.425264358461009,-13.5,1.5625,7.0625,-0.07958984375,1.00244140625,0.38916015625
1969/12/31/18:00:38.278,62,1730345323,431129097,RU_myo,-0.70900262599059,-0.46707386560265,-0.31370177305600694,-0.42514524340625376,-0.5625,1.0625,-0.4375,-0.0849609375,0.96240234375,0.39306640625
1969/12/31/18:00:38.300,63,1730345323,453730938,RU_myo,-0.7080047561046893,-0.46858551136727905,-0.31479083975415806,-0.42433902846271054,16.5,1.3125,-3.0,-0.01708984375,0.87060546875,0.3935546875
1969/12/31/18:00:38.321,64,1730345323,474809310,RU_myo,-0.7048554512817614,-0.47287384505421143,-0.31657158418897713,-0.4234991753783135,35.0,2.1875,2.375,0.03466796875,0.830078125,0.36572265625
1969/12/31/18:00:38.338,65,1730345323,491296408,RU_myo,-0.7000804319797909,-0.4787229455539604,-0.3196775610417701,-0.42251388986104893,45.75,5.0625,7.8125,-0.015625,0.9306640625,0.3291015625
1969/12/31/18:00:38.360,66,1730345323,513808765,RU_myo,-0.6958177633715512,-0.48355092879508815,-0.3240151307551588,-0.4207497290310915,45.625,7.5625,3.5,-0.09033203125,0.93896484375,0.3330078125
1969/12/31/18:00:38.383,67,1730345323,536351300,RU_myo,-0.6926042365506354,-0.487288705024698,-0.3278701056353554,-0.4187484725919906,33.9375,5.125,0.625,-0.11865234375,0.9560546875,0.27197265625
1969/12/31/18:00:38.398,68,1730345323,551239383,RU_myo,-0.6915330506019879,-0.4890348896367248,-0.32980713136114576,-0.4169582386120185,16.3125,-1.375,-1.375,-0.12744140625,0.95166015625,0.28076171875
1969/12/31/18:00:38.420,69,1730345323,573462716,RU_myo,-0.6918597426711606,-0.48984353340496956,-0.3300615286137647,-0.4152623226124362,2.6875,-7.4375,-3.75,-0.0986328125,1.00634765625,0.265625
1969/12/31/18:00:38.441,70,1730345323,594581619,RU_myo,-0.6931923669235283,-0.4891650661112942,-0.32981260352656694,-0.4140356592013749,-8.4375,-6.5625,-5.875,-0.09423828125,0.97412109375,0.26025390625
1969/12/31/18:00:38.458,71,1730345323,611216244,RU_myo,-0.6950418085973844,-0.488018466942807,-0.32921105686461993,-0.4127649939887698,-9.0625,-6.8125,-9.5,-0.05908203125,0.908203125,0.2861328125
1969/12/31/18:00:38.480,72,1730345323,633899879,RU_myo,-0.6963141539089348,-0.4877677901691828,-0.32865735110873995,-0.411355718936473,-0.875,-7.6875,-7.9375,-0.04541015625,0.85693359375,0.3134765625
1969/12/31/18:00:38.495,73,1730345323,648184941,RU_myo,-0.6962835242789646,-0.48915000851046553,-0.32821568880465174,-0.4101170377030977,9.625,-7.6875,-3.0,-0.02392578125,0.8916015625,0.33056640625
1969/12/31/18:00:38.518,74,1730345323,671248640,RU_myo,-0.6953783292469338,-0.49135430303379535,-0.32828155459182523,-0.40896350572965623,14.0625,-6.0625,0.75,-0.04345703125,0.91455078125,0.2958984375
1969/12/31/18:00:38.540,75,1730345323,693798273,RU_myo,-0.6943493915103114,-0.49343542501194226,-0.3287738570858792,-0.4078089684514284,14.3125,-4.625,0.1875,-0.052734375,0.93505859375,0.291015625
1969/12/31/18:00:38.555,76,1730345323,708105610,RU_myo,-0.6934366299087047,-0.49514622235956,-0.32895823228374566,-0.40713921476157094,12.875,-3.0,0.9375,-0.03564453125,0.96826171875,0.32373046875
1969/12/31/18:00:38.578,77,1730345323,731210740,RU_myo,-0.692227763347375,-0.4966804389103278,-0.329635174558206,-0.4067799367580898,16.1875,1.3125,0.625,-0.02734375,0.939453125,0.3466796875
1969/12/31/18:00:38.600,78,1730345323,753670580,RU_myo,-0.6905648229260356,-0.49856155885839903,-0.3316420015713723,-0.40567250357837903,18.5625,3.625,-3.4375,-0.04345703125,0.9775390625,0.28466796875
1969/12/31/18:00:38.615,79,1730345323,768069765,RU_myo,-0.6895956885842583,-0.4992992590767163,-0.3340257725127574,-0.4044562021637207,14.0,5.625,-6.25,-0.0869140625,0.9892578125,0.296875
1969/12/31/18:00:38.646,80,1730345323,799420279,RU_myo,-0.6884191943707408,-0.5003245173272459,-0.33639774817123436,-0.4032256752843515,17.9375,5.25,-4.8125,-0.08349609375,0.87451171875,0.28857421875
1969/12/31/18:00:38.660,81,1730345323,813743295,RU_myo,-0.6862328279092774,-0.5026515093081473,-0.33847805617083354,-0.40231650672162544,20.875,3.75,2.125,-0.08642578125,0.89111328125,0.2265625
1969/12/31/18:00:38.685,82,1730345323,838117655,RU_myo,-0.6838760407429652,-0.5054152158315479,-0.34141923890371684,-0.4003772268874477,24.1875,3.125,-2.5,-0.109375,1.041015625,0.21875
1969/12/31/18:00:38.698,83,1730345323,851811914,RU_myo,-0.6829335099570767,-0.5063106701165244,-0.3456778731364506,-0.39718778219844997,20.125,5.75,-15.875,-0.15283203125,1.05126953125,0.23974609375
1969/12/31/18:00:38.720,84,1730345323,873664209,RU_myo,-0.6837935621598179,-0.5059486460464915,-0.3486102130539878,-0.39359020728031646,7.75,-1.625,-18.875,-0.1728515625,0.9833984375,0.220703125
1969/12/31/18:00:38.741,85,1730345323,894814918,RU_myo,-0.6863249660772386,-0.504566340112097,-0.349052243752399,-0.39055522080286786,-6.0625,-10.75,-14.875,-0.18701171875,0.966796875,0.2392578125
1969/12/31/18:00:38.758,86,1730345323,911255210,RU_myo,-0.6896049024881131,-0.5030899381546612,-0.34873903998735095,-0.38694531213157246,-14.8125,-16.875,-19.1875,-0.17138671875,1.0947265625,0.19677734375
1969/12/31/18:00:38.780,87,1730345323,933618449,RU_myo,-0.6934341813145742,-0.5003321086443302,-0.34976864047824546,-0.3827253785445956,-12.6875,-10.1875,-31.625,-0.1494140625,1.1455078125,0.28271484375
1969/12/31/18:00:38.801,88,1730345323,954704467,RU_myo,-0.6972345659686549,-0.4976584953526271,-0.3519130346091793,-0.37730252860803787,-3.375,-8.4375,-42.3125,-0.11181640625,1.0185546875,0.30908203125
1969/12/31/18:00:38.818,89,1730345323,971207922,RU_myo,-0.7014484300914527,-0.49454769242417485,-0.3533791360157932,-0.372177197137186,-7.4375,-9.6875,-41.4375,-0.10546875,0.96435546875,0.3173828125
1969/12/31/18:00:38.840,90,1730345323,993688385,RU_myo,-0.7054080817382202,-0.4911856931847375,-0.3545350014550373,-0.36802307777136767,-11.3125,-6.6875,-38.1875,-0.11181640625,1.06689453125,0.33447265625
1969/12/31/18:00:38.861,91,1730345324,14584273,RU_myo,-0.7094121526977005,-0.48683592068733283,-0.3572693342990656,-0.36343335936982163,-8.3125,0.875,-46.3125,-0.12939453125,1.05224609375,0.38427734375
1969/12/31/18:00:38.877,92,1730345324,30532172,RU_myo,-0.7138168510922271,-0.4814113646901067,-0.3613026469276663,-0.3580069808915018,-12.3125,4.6875,-56.875,-0.14404296875,1.04345703125,0.33837890625
1969/12/31/18:00:38.900,93,1730345324,53761328,RU_myo,-0.7184203335925275,-0.47514249401221875,-0.3659543216566813,-0.3524049788601864,-15.9375,7.9375,-60.625,-0.1611328125,0.97265625,0.31201171875
1969/12/31/18:00:38.922,94,1730345324,74869052,RU_myo,-0.7226612750148884,-0.46914088514816715,-0.3706377774820891,-0.3468359113174234,-15.375,8.1875,-59.9375,-0.16259765625,0.9443359375,0.28466796875
1969/12/31/18:00:38.937,95,1730345324,90511789,RU_myo,-0.7263429180420393,-0.46323357263583553,-0.37559148959169064,-0.3417186789444062,-12.6875,11.75,-57.9375,-0.16357421875,0.87841796875,0.28662109375
1969/12/31/18:00:38.960,96,1730345324,113671382,RU_myo,-0.7293740119809758,-0.45809399497357584,-0.3804633579356877,-0.3367656094143607,-9.125,11.9375,-54.3125,-0.17724609375,0.87255859375,0.2744140625
1969/12/31/18:00:38.981,97,1730345324,134823732,RU_myo,-0.7320613676166868,-0.4530297233696262,-0.38504169806533367,-0.3325554307747667,-9.4375,13.375,-49.4375,-0.19677734375,0.87548828125,0.29296875
1969/12/31/18:00:38.997,98,1730345324,150552921,RU_myo,-0.7346602382909981,-0.44782661809099056,-0.3893613823140529,-0.32882117992290233,-10.5625,13.75,-45.5,-0.2314453125,0.875,0.30908203125
1969/12/31/18:00:39.020,99,1730345324,173723342,RU_myo,-0.7374541621357082,-0.44217954189135206,-0.3937198377834523,-0.32499738586217386,-10.875,14.0,-45.0,-0.27587890625,0.84619140625,0.33154296875
1969/12/31/18:00:39.041,100,1730345324,194739084,RU_myo,-0.7400843434273371,-0.4366290114530076,-0.3978121186260418,-0.3215210556799614,-11.6875,13.375,-40.8125,-0.29736328125,0.7919921875,0.3134765625
1969/12/31/18:00:39.057,101,1730345324,210518557,RU_myo,-0.7422252569479862,-0.43162708799738164,-0.40098840047268064,-0.3193869558102797,-12.125,13.6875,-32.0,-0.28857421875,0.79296875,0.328125
1969/12/31/18:00:39.080,102,1730345324,233734918,RU_myo,-0.7437080697914696,-0.4269028350723232,-0.40407772280398163,-0.31839200722977984,-12.875,17.125,-26.5625,-0.296875,0.84619140625,0.3388671875
1969/12/31/18:00:39.101,103,1730345324,254813826,RU_myo,-0.7450110648441136,-0.4217884385301605,-0.40750707626477817,-0.31779082613609405,-14.25,20.5625,-24.625,-0.33251953125,0.84716796875,0.3525390625
1969/12/31/18:00:39.117,104,1730345324,270444900,RU_myo,-0.7459326564101287,-0.41715346969098593,-0.4110502733531514,-0.3171831136772573,-9.375,21.375,-23.4375,-0.31884765625,0.791015625,0.35302734375
1969/12/31/18:00:39.125,105,1730345324,278082357,RU_myo,-0.7456229111674942,-0.4139162301332525,-0.4153809882463752,-0.3165098156105939,0.0,25.4375,-21.25,-0.296875,0.77294921875,0.3369140625
1969/12/31/18:00:39.146,106,1730345324,298965149,RU_myo,-0.743604197479208,-0.4123268186284906,-0.42105428089371766,-0.3158364840737772,14.9375,31.75,-14.5,-0.3505859375,0.75537109375,0.34326171875
1969/12/31/18:00:39.168,107,1730345324,321481014,RU_myo,-0.7398254063368073,-0.41355031787973984,-0.4274655292841939,-0.31449598406645507,32.75,31.0,-5.8125,-0.396484375,0.74365234375,0.31005859375
1969/12/31/18:00:39.184,108,1730345324,337978685,RU_myo,-0.7354196622839081,-0.41641231168158543,-0.4331957479577742,-0.31320943625236647,37.625,26.3125,-0.1875,-0.3955078125,0.77978515625,0.2705078125
1969/12/31/18:00:39.206,109,1730345324,358972595,RU_myo,-0.7313951954692601,-0.418794545336287,-0.43838548807207073,-0.3122344642874445,29.5625,24.5625,-3.125,-0.38671875,0.890625,0.23876953125
1969/12/31/18:00:39.228,110,1730345324,381489950,RU_myo,-0.7286580662358427,-0.4190439972171284,-0.4427243163141639,-0.31217740252921816,12.3125,21.6875,-2.25,-0.44091796875,0.91064453125,0.20947265625
1969/12/31/18:00:39.245,111,1730345324,398016899,RU_myo,-0.7269467551187823,-0.41928672719889465,-0.4446148191621466,-0.31315286714083385,5.75,12.875,7.125,-0.4091796875,0.79541015625,0.22216796875
1969/12/31/18:00:39.266,112,1730345324,419034124,RU_myo,-0.7255068118896264,-0.4193621018333998,-0.4451182955422769,-0.3156659570196978,0.875,12.375,13.8125,-0.34814453125,0.748046875,0.2548828125
1969/12/31/18:00:39.288,113,1730345324,441565223,RU_myo,-0.7235874352949107,-0.41928522945985464,-0.4460169515127536,-0.3188886934392635,-2.4375,16.25,15.5,-0.37158203125,0.83349609375,0.23583984375
1969/12/31/18:00:39.305,114,1730345324,458032208,RU_myo,-0.7218236071992354,-0.4196549524902294,-0.44650896341165186,-0.3216988444700406,-1.9375,11.3125,16.25,-0.392578125,0.87353515625,0.21826171875
1969/12/31/18:00:39.326,115,1730345324,478959685,RU_myo,-0.7196616395575711,-0.42177591511044554,-0.446065716038525,-0.32437259279583536,6.75,6.5625,21.5625,-0.330078125,0.7958984375,0.2275390625
1969/12/31/18:00:39.348,116,1730345324,501428059,RU_myo,-0.7171165064130525,-0.423312347955824,-0.4457107954327253,-0.3284698755331956,2.75,12.9375,25.6875,-0.32568359375,0.84521484375,0.25244140625
1969/12/31/18:00:39.365,117,1730345324,518019790,RU_myo,-0.7148092506633316,-0.4239297348964738,-0.44565720187360375,-0.33274761224525984,-4.0625,13.875,24.8125,-0.3720703125,0.9013671875,0.2236328125
1969/12/31/18:00:39.386,118,1730345324,539097338,RU_myo,-0.7126433465319524,-0.42549879352751324,-0.4448451959297252,-0.33645651874887844,-2.75,6.75,26.6875,-0.36572265625,0.88427734375,0.18408203125
1969/12/31/18:00:39.408,119,1730345324,561564703,RU_myo,-0.7102729239400997,-0.42782378388211884,-0.4435696521048844,-0.3401839902081213,4.0,5.75,27.5625,-0.29638671875,0.84912109375,0.23486328125
1969/12/31/18:00:39.425,120,1730345324,578114898,RU_myo,-0.7077241653553266,-0.4296635153588737,-0.44241915097109025,-0.3446462885272102,0.875,9.875,28.5625,-0.28955078125,0.88671875,0.24609375
1969/12/31/18:00:39.446,121,1730345324,599030165,RU_myo,-0.7052033961982656,-0.4314221382713578,-0.44100387199728835,-0.3493976151653025,-2.4375,9.0625,30.9375,-0.30029296875,0.91259765625,0.2236328125
1969/12/31/18:00:39.468,122,1730345324,621704740,RU_myo,-0.7030891439134198,-0.433083382396669,-0.43918658677091743,-0.3538637896189243,-4.125,5.625,29.875,-0.28564453125,0.900390625,0.21630859375
1969/12/31/18:00:39.492,123,1730345324,645478069,RU_myo,-0.7008733933311687,-0.4349638344018843,-0.4371609296787845,-0.35843168225652683,-3.4375,5.1875,29.9375,-0.251953125,0.89404296875,0.21484375
1969/12/31/18:00:39.506,124,1730345324,658992515,RU_myo,-0.6984536159692153,-0.4369912522142242,-0.435221315578161,-0.36302010728634154,-3.9375,5.1875,31.5625,-0.26513671875,0.91357421875,0.20068359375
1969/12/31/18:00:39.528,125,1730345324,681520984,RU_myo,-0.6961864665030976,-0.43924379761749743,-0.4328965202863567,-0.36740970705256837,-3.5625,2.0625,32.6875,-0.26806640625,0.95068359375,0.2060546875
1969/12/31/18:00:39.543,126,1730345324,696645916,RU_myo,-0.6942142675403135,-0.44167284871993395,-0.4302602713106998,-0.37130545966727624,-1.5,-0.6875,30.375,-0.2412109375,0.93212890625,0.2275390625
1969/12/31/18:00:39.566,127,1730345324,718982131,RU_myo,-0.6922937352080838,-0.4440127764823071,-0.42753395178811837,-0.37522894155508235,-1.125,-1.0,31.125,-0.2275390625,0.8857421875,0.22802734375
1969/12/31/18:00:39.588,128,1730345324,741515312,RU_myo,-0.6901328316581583,-0.44649909766635004,-0.42483327212349137,-0.37930452323624464,-1.5625,-0.3125,33.5,-0.23583984375,0.921875,0.2236328125
1969/12/31/18:00:39.603,129,1730345324,756591411,RU_myo,-0.688070046750557,-0.4489483115040888,-0.4219113210206316,-0.3834003932665424,-2.75,-1.375,32.8125,-0.22265625,0.9541015625,0.22216796875
1969/12/31/18:00:39.626,130,1730345324,779125885,RU_myo,-0.6862455191504304,-0.4515768940051614,-0.4184364353695616,-0.3873710699081983,-3.8125,-4.625,32.4375,-0.1845703125,0.935546875,0.2138671875
1969/12/31/18:00:39.648,131,1730345324,801634540,RU_myo,-0.6842897336215866,-0.4544435744333155,-0.41477283532753323,-0.3913976152082799,-1.6875,-5.125,34.0625,-0.16943359375,0.9091796875,0.234375
1969/12/31/18:00:39.671,132,1730345324,824167132,RU_myo,-0.6822716297507497,-0.4573703903168547,-0.4109864169193621,-0.3954844047575685,-2.0625,-5.9375,35.75,-0.17333984375,0.9296875,0.228515625
1969/12/31/18:00:39.686,133,1730345324,839047760,RU_myo,-0.6801452516530427,-0.4606116487998486,-0.40726931660810783,-0.3992130376043209,0.0625,-6.9375,35.1875,-0.16015625,0.95068359375,0.2275390625
1969/12/31/18:00:39.708,134,1730345324,861496189,RU_myo,-0.6780021567489181,-0.4635364461704954,-0.40396941898650546,-0.40280981497370233,0.5,-4.375,32.0,-0.14306640625,0.9677734375,0.2392578125
1969/12/31/18:00:39.723,135,1730345324,876394595,RU_myo,-0.6759834318445068,-0.46609655733085037,-0.40097608768674703,-0.40622478533378814,-1.75,-4.0625,30.625,-0.14599609375,0.96875,0.2158203125
1969/12/31/18:00:39.746,136,1730345324,899053907,RU_myo,-0.6741595898023031,-0.46866480989424997,-0.39774561350186577,-0.4094637595494886,-2.125,-5.75,30.1875,-0.14990234375,1.00830078125,0.2265625
1969/12/31/18:00:39.768,137,1730345324,921689471,RU_myo,-0.6725732147373568,-0.4711674426290739,-0.3948163453843885,-0.4120273840918236,2.5,-6.125,25.4375,-0.11181640625,0.94482421875,0.25830078125
1969/12/31/18:00:39.785,138,1730345324,937988641,RU_myo,-0.6707534915078316,-0.47367769313851504,-0.39201543912236597,-0.4147807760042969,1.8125,-4.3125,24.875,-0.0830078125,0.95556640625,0.24658203125
1969/12/31/18:00:39.806,139,1730345324,959108507,RU_myo,-0.6688957891922795,-0.47597794342249894,-0.3894975298015628,-0.4175105925058745,0.9375,-2.875,23.8125,-0.0859375,1.00830078125,0.24169921875
1969/12/31/18:00:39.828,140,1730345324,981668802,RU_myo,-0.6673972143619515,-0.4778893633702863,-0.3870110412683251,-0.4200299615216233,-0.75,-3.625,22.75,-0.09716796875,1.0029296875,0.24658203125
1969/12/31/18:00:39.845,141,1730345324,998111334,RU_myo,-0.6661785420763315,-0.4794776570363409,-0.38414363205024565,-0.4227777151592074,-3.9375,-4.1875,22.9375,-0.08447265625,1.0068359375,0.25439453125
1969/12/31/18:00:39.866,142,1730345325,19126732,RU_myo,-0.6653846629418971,-0.4801487014643097,-0.38164101058298316,-0.4255239286397823,-4.875,-1.1875,18.625,-0.06884765625,0.97705078125,0.287109375
1969/12/31/18:00:39.888,143,1730345325,41476804,RU_myo,-0.6647642370180888,-0.480263476046212,-0.3794380519226458,-0.42832495550798266,-10.8125,0.75,17.125,-0.07958984375,0.9892578125,0.2373046875
1969/12/31/18:00:39.905,144,1730345325,58059599,RU_myo,-0.6644630466153538,-0.48044944456287914,-0.3768159134567093,-0.43089088905156586,-10.8125,-2.5625,16.75,-0.064453125,0.95263671875,0.24658203125
1969/12/31/18:00:39.926,145,1730345325,79178817,RU_myo,-0.663777019789263,-0.48111017350117324,-0.3742442704438912,-0.4334446850444415,-6.4375,-2.4375,18.4375,-0.05859375,0.96337890625,0.27099609375
1969/12/31/18:00:39.948,146,1730345325,101756710,RU_myo,-0.6627692710554266,-0.4818642043450219,-0.3721248959964026,-0.43596656258853594,-4.3125,-0.4375,18.0,-0.05126953125,0.9755859375,0.2734375
1969/12/31/18:00:39.965,147,1730345325,118105973,RU_myo,-0.6623046813740275,-0.4819590922236173,-0.37027299132843944,-0.4381390810527224,-9.3125,-0.3125,14.25,-0.060546875,0.958984375,0.234375
1969/12/31/18:00:39.986,148,1730345325,139139000,RU_myo,-0.6618306392251835,-0.482396659206552,-0.3681448188681581,-0.4401625387395816,-8.25,-2.5,14.625,-0.04736328125,0.96533203125,0.2421875
1969/12/31/18:00:40.003,149,1730345325,156946312,RU_myo,-0.6607973798921395,-0.4834983692163599,-0.3661331377087785,-0.44217946036007666,-0.5625,-2.0625,16.1875,-0.02783203125,0.927734375,0.28369140625
1969/12/31/18:00:40.025,150,1730345325,178180597,RU_myo,-0.659255070036793,-0.48476791532144475,-0.36465923379650417,-0.44430447230770714,3.625,1.0,16.6875,-0.02197265625,0.93310546875,0.29736328125
1969/12/31/18:00:40.046,151,1730345325,199128170,RU_myo,-0.6579729115303856,-0.4856219698587588,-0.363377304076794,-0.44631814321692886,-0.25,1.25,16.75,-0.048828125,0.953125,0.2666015625
1969/12/31/18:00:40.063,152,1730345325,217021359,RU_myo,-0.6571795125270607,-0.4863543402050657,-0.3614243195751536,-0.44827112922652873,-7.75,-2.25,16.125,-0.04345703125,1.017578125,0.2255859375
1969/12/31/18:00:40.085,153,1730345325,238134688,RU_myo,-0.656884693686353,-0.48666715111539344,-0.35917183149160903,-0.4501701663690923,-8.4375,-3.625,14.625,-0.0322265625,1.009765625,0.27099609375
1969/12/31/18:00:40.106,154,1730345325,259153766,RU_myo,-0.6565798259866699,-0.48715562102859256,-0.3569138150557767,-0.45187925558703324,-5.5625,-3.75,13.0,-0.00341796875,0.91943359375,0.27880859375
1969/12/31/18:00:40.124,155,1730345325,277144701,RU_myo,-0.6561405472138336,-0.48757388444715066,-0.35483221481734056,-0.4537018721967853,-7.375,-2.8125,14.125,-0.0166015625,0.9375,0.25
1969/12/31/18:00:40.145,156,1730345325,298050527,RU_myo,-0.6554884592955561,-0.4885647222216878,-0.35301166187760674,-0.45499687747191536,-3.375,-4.8125,14.0625,-0.02880859375,0.986328125,0.2529296875
1969/12/31/18:00:40.166,157,1730345325,319110946,RU_myo,-0.6545554971082831,-0.49019951074813334,-0.3517816210099901,-0.4555340074980163,4.1875,-5.3125,11.375,-0.01513671875,1.00048828125,0.28369140625
1969/12/31/18:00:40.184,158,1730345325,336967533,RU_myo,-0.6534708152848828,-0.491918816773714,-0.3507515434241358,-0.45603193535151254,1.625,-4.5,8.5,0.02783203125,0.9921875,0.2158203125
1969/12/31/18:00:40.206,159,1730345325,359484545,RU_myo,-0.6537114835727315,-0.49185518122608934,-0.34904079680258154,-0.45706706194344,-10.625,-1.75,0.9375,0.09521484375,1.13671875,0.27587890625
1969/12/31/18:00:40.226,160,1730345325,379208605,RU_myo,-0.6528561217459282,-0.49252583925302806,-0.3508102260255769,-0.45621197625977505,18.625,4.625,-5.9375,0.0068359375,1.2041015625,0.4443359375
1969/12/31/18:00:40.244,161,1730345325,397049912,RU_myo,-0.6557135268127795,-0.48842845821692804,-0.35074326494723046,-0.4565704480720778,-19.9375,5.5625,-13.125,-0.0302734375,1.03271484375,0.36328125
1969/12/31/18:00:40.266,162,1730345325,419566361,RU_myo,-0.6596962552737481,-0.4835575382120368,-0.34953098843119207,-0.45694753106064867,-38.4375,1.25,-15.6875,-0.01806640625,0.92431640625,0.2041015625
1969/12/31/18:00:40.286,163,1730345325,439104015,RU_myo,-0.6609116208637489,-0.4831874875222366,-0.34934510276332986,-0.45572324988361,-1.25,-4.625,-11.9375,0.041015625,0.7626953125,0.2529296875
1969/12/31/18:00:40.304,164,1730345325,457091189,RU_myo,-0.659304755386108,-0.48555296064536474,-0.34951757234992503,-0.45540424740267865,16.625,-0.75,-0.625,0.103515625,0.7587890625,0.2578125
1969/12/31/18:00:40.326,165,1730345325,479523992,RU_myo,-0.6577305363797906,-0.4872100651312859,-0.34976836819083046,-0.45571809549484055,6.0,1.3125,4.8125,0.02685546875,0.943359375,0.20654296875
1969/12/31/18:00:40.346,166,1730345325,499113992,RU_myo,-0.6589606788145927,-0.48660678819938386,-0.3489189775662709,-0.45523642708882534,-18.125,-5.75,-3.5,-0.02490234375,1.03466796875,0.1396484375
1969/12/31/18:00:40.364,167,1730345325,517146614,RU_myo,-0.6635907112071988,-0.4829387747431771,-0.34482548683166314,-0.45553582897549266,-55.125,-14.875,-6.0,-0.03076171875,1.0556640625,0.07080078125
1969/12/31/18:00:40.386,168,1730345325,539575126,RU_myo,-0.6716288480280974,-0.4773721807610884,-0.3371875861295082,-0.455340557486382,-79.125,-31.0625,-12.375,-0.0107421875,1.02587890625,0.1025390625
1969/12/31/18:00:40.406,169,1730345325,559040299,RU_myo,-0.6844172569563751,-0.4674470992535114,-0.32572988232353967,-0.4549354586546121,-107.6875,-43.8125,-22.9375,-0.0107421875,1.0634765625,0.0654296875
1969/12/31/18:00:40.423,170,1730345325,576914129,RU_myo,-0.7022397620854882,-0.4529220645260219,-0.3096177918529186,-0.4537154868193568,-152.25,-62.0625,-35.5,-0.02197265625,1.11328125,-0.00341796875
1969/12/31/18:00:40.446,171,1730345325,599505488,RU_myo,-0.7250524248491573,-0.4339328906294199,-0.2888003429618024,-0.450106198086072,-192.0625,-84.25,-54.375,0.009765625,1.083984375,0.013671875
1969/12/31/18:00:40.466,172,1730345325,619139779,RU_myo,-0.7503882930075211,-0.41190488731254654,-0.2642685082328236,-0.44431287296419303,-215.0625,-100.8125,-67.125,0.0791015625,0.8994140625,0.0966796875
1969/12/31/18:00:40.484,173,1730345325,637091147,RU_myo,-0.7749809409559194,-0.38950451765480215,-0.23796272553056622,-0.43710926910744174,-214.25,-108.875,-67.6875,0.146484375,0.6953125,0.23095703125
1969/12/31/18:00:40.507,174,1730345325,660106987,RU_myo,-0.796337052221079,-0.37033823060066734,-0.21220600326277528,-0.42856213831211043,-187.375,-113.0,-62.8125,0.16650390625,0.59326171875,0.37060546875
1969/12/31/18:00:40.526,175,1730345325,679079231,RU_myo,-0.8139614781330461,-0.35721050697403606,-0.18882783334660302,-0.41738640990866777,-141.6875,-117.6875,-62.75,0.15478515625,0.53466796875,0.4375
1969/12/31/18:00:40.543,176,1730345325,697012471,RU_myo,-0.8279542212097516,-0.3513587241268274,-0.16820299525682408,-0.40341864972699826,-89.5625,-123.8125,-65.0,0.185546875,0.46240234375,0.486328125
1969/12/31/18:00:40.565,177,1730345325,718713021,RU_myo,-0.8376819340538559,-0.35454239380100905,-0.15087429806784203,-0.387073138489585,-28.625,-129.25,-65.1875,0.25048828125,0.49072265625,0.5087890625
1969/12/31/18:00:40.586,178,1730345325,739804119,RU_myo,-0.843775675238773,-0.3649749394522866,-0.13482101024249182,-0.3696744495422241,17.75,-137.5,-58.875,0.31005859375,0.47705078125,0.5009765625
1969/12/31/18:00:40.603,179,1730345325,756242565,RU_myo,-0.8469250221443951,-0.37930669544047096,-0.11803365228992291,-0.3534296175858033,39.5,-144.375,-42.6875,0.33984375,0.49462890625,0.453125
1969/12/31/18:00:40.625,180,1730345325,778630087,RU_myo,-0.848158983556232,-0.39536402788208036,-0.09807810941749044,-0.33866548174091754,44.0,-158.75,-23.875,0.3681640625,0.55615234375,0.43017578125
1969/12/31/18:00:40.646,181,1730345325,799741467,RU_myo,-0.8486869647631368,-0.41018445923867697,-0.07366353850633583,-0.32565753228650207,29.0,-174.125,-3.5,0.3662109375,0.66015625,0.4345703125
1969/12/31/18:00:40.663,182,1730345325,816248391,RU_myo,-0.8505633393781162,-0.42113138933043925,-0.04382207790423991,-0.31188136224326735,-3.75,-196.0625,1.5,0.37939453125,0.70458984375,0.39990234375
1969/12/31/18:00:40.685,183,1730345325,838591061,RU_myo,-0.8539067685231543,-0.42753319373202026,-0.008727658344565153,-0.296618318563543,-37.5625,-217.5625,3.25,0.40380859375,0.64404296875,0.390625
1969/12/31/18:00:40.706,184,1730345325,859820852,RU_myo,-0.8569504761073582,-0.4314352906205338,0.031980774124368325,-0.2801369336466615,-58.375,-243.1875,10.75,0.47998046875,0.53857421875,0.34130859375
1969/12/31/18:00:40.723,185,1730345325,876205874,RU_myo,-0.8573834104955055,-0.43546630366496525,0.07952524087953045,-0.26256146298061395,-62.0625,-279.1875,25.375,0.65966796875,0.5615234375,0.3681640625
1969/12/31/18:00:40.745,186,1730345325,898713268,RU_myo,-0.8541328782989082,-0.4414393075195429,0.12786054877000447,-0.2433927773244763,-43.8125,-291.6875,23.0,0.8212890625,0.60205078125,0.494140625
1969/12/31/18:00:40.766,187,1730345325,919783427,RU_myo,-0.847371862327025,-0.448587092199916,0.17418606273994017,-0.2244766428722845,-24.1875,-286.1875,22.3125,0.88671875,0.42431640625,0.50341796875
1969/12/31/18:00:40.782,188,1730345325,935540082,RU_myo,-0.836013590673952,-0.45676198807153284,0.2216674960817487,-0.20811843657454931,-4.9375,-292.3125,42.0625,0.8564453125,0.28759765625,0.4921875
1969/12/31/18:00:40.805,189,1730345325,958757734,RU_myo,-0.8185608910191475,-0.4692138480580977,0.26847967190525124,-0.1942037544902272,36.125,-297.4375,54.25,0.93408203125,0.37060546875,0.57177734375
1969/12/31/18:00:40.826,190,1730345325,979792450,RU_myo,-0.7966208377046606,-0.4835754594800817,0.3136557221088148,-0.18212661505598432,60.6875,-294.6875,61.5,1.01416015625,0.486328125,0.51318359375
1969/12/31/18:00:40.842,191,1730345325,995535125,RU_myo,-0.7740834890734889,-0.49381924703095476,0.35710498261996243,-0.17150316205128943,47.5,-280.0625,72.25,1.07958984375,0.5537109375,0.44873046875
1969/12/31/18:00:40.865,192,1730345326,18793965,RU_myo,-0.7526100181787193,-0.49931899754440867,0.3984298271568145,-0.1597259279518051,24.6875,-269.8125,71.625,1.04345703125,0.61962890625,0.54443359375
1969/12/31/18:00:40.894,193,1730345326,47209646,RU_myo,-0.7319810289089865,-0.5008451866277949,0.43877358599405525,-0.14434546263401593,-2.125,-272.0,63.0625,1.1015625,0.73388671875,0.5224609375
1969/12/31/18:00:40.902,194,1730345326,55554070,RU_myo,-0.7153945681648787,-0.495118226853809,0.4766855709724172,-0.1258547563822182,-51.25,-253.625,59.1875,1.16259765625,0.8076171875,0.3935546875
1969/12/31/18:00:40.925,195,1730345326,78742992,RU_myo,-0.7043427092830714,-0.48241982445176745,0.5103127722977262,-0.10369828969427541,-101.625,-227.5625,46.3125,1.23779296875,0.78466796875,0.41357421875
1969/12/31/18:00:40.946,196,1730345326,99737607,RU_myo,-0.6962308259106091,-0.4679584239727045,0.5379660295937678,-0.0828860753560627,-108.1875,-191.75,37.0625,1.14892578125,0.59375,0.4794921875
1969/12/31/18:00:40.962,197,1730345326,115390213,RU_myo,-0.6873884440904023,-0.4565499522106384,0.5609216658844608,-0.06652933795582833,-78.5,-164.6875,31.4375,1.04541015625,0.3984375,0.44970703125
1969/12/31/18:00:40.985,198,1730345326,138759096,RU_myo,-0.6782726028003305,-0.4493334744727826,0.5784817537426017,-0.05834865547350994,-32.4375,-125.0625,37.1875,1.0341796875,0.43017578125,0.4716796875
1969/12/31/18:00:41.006,199,1730345326,159692256,RU_myo,-0.6731865042165754,-0.4441932346045545,0.5881684806106199,-0.059750642577337025,13.375,-80.9375,36.5,1.11083984375,0.47998046875,0.4169921875
1969/12/31/18:00:41.023,200,1730345326,176109886,RU_myo,-0.671331254380098,-0.44250855480095563,0.5908252152376897,-0.06652887237697126,38.875,-31.75,25.0,1.123046875,0.44873046875,0.431640625
1969/12/31/18:00:41.045,201,1730345326,198798875,RU_myo,-0.6735517347112345,-0.44291092232687834,0.5870690590963542,-0.0742151965756489,40.9375,11.8125,15.5625,0.97802734375,0.54443359375,0.396484375
1969/12/31/18:00:41.066,202,1730345326,219756661,RU_myo,-0.6760905412409705,-0.4462307436140413,0.5808751179010848,-0.07977343481104526,37.625,29.8125,2.375,0.8515625,0.6591796875,0.1806640625
1969/12/31/18:00:41.082,203,1730345326,235555819,RU_myo,-0.677781302244914,-0.45177282298215693,0.5737795607748254,-0.08538640628911613,44.1875,36.3125,-11.875,0.845703125,0.57470703125,0.07470703125
1969/12/31/18:00:41.105,204,1730345326,258690698,RU_myo,-0.6789938355233434,-0.45860311731437325,0.5654721695392159,-0.09429622255133173,63.25,44.75,-16.9375,0.94873046875,0.46240234375,0.119140625
1969/12/31/18:00:41.128,205,1730345326,281660499,RU_myo,-0.6785239924675658,-0.46587871138840786,0.557858171372992,-0.10656677978306826,77.0,49.0,-9.0625,0.99658203125,0.376953125,0.0625
1969/12/31/18:00:41.149,206,1730345326,302295545,RU_myo,-0.6761956844528338,-0.47527175691255685,0.5500994407413478,-0.11944353772670782,87.625,51.5625,-7.4375,0.98779296875,0.4541015625,-0.07568359375
1969/12/31/18:00:41.165,207,1730345326,318804374,RU_myo,-0.6727772804747965,-0.4869899229709154,0.5410049727051253,-0.13238264731469052,99.3125,55.1875,-12.6875,0.94287109375,0.505859375,-0.12060546875
1969/12/31/18:00:41.204,208,1730345326,357271276,RU_myo,-0.6691493380907105,-0.4991766176800366,0.5312181538436287,-0.1444615544747092,100.8125,53.375,-15.5,0.82275390625,0.5087890625,-0.21337890625
1969/12/31/18:00:41.209,209,1730345326,362103677,RU_myo,-0.6628770790592907,-0.5114547392060451,0.5253091814255884,-0.1518495693490024,83.1875,30.3125,-15.625,0.77294921875,0.55224609375,-0.3330078125
1969/12/31/18:00:41.225,210,1730345326,378643683,RU_myo,-0.6567275803423162,-0.5213538095988908,0.5215979462458581,-0.15759020561745912,68.5,16.0,-13.125,0.94482421875,0.58251953125,-0.30224609375
1969/12/31/18:00:41.248,211,1730345326,401150034,RU_myo,-0.6543913634305923,-0.5265891329676506,0.5174952779824652,-0.16332319423057873,46.0,22.625,-9.3125,0.9345703125,0.4873046875,-0.12744140625
1969/12/31/18:00:41.269,212,1730345326,422339862,RU_myo,-0.6542078319096153,-0.5292742157216329,0.5135278195435677,-0.16783949414604366,27.0625,25.3125,-6.375,0.8232421875,0.44677734375,-0.08642578125
1969/12/31/18:00:41.285,213,1730345326,438787443,RU_myo,-0.653058523129521,-0.5319070120629696,0.5110945862323932,-0.17138208719137332,23.5,17.6875,-3.1875,0.7490234375,0.41455078125,-0.1416015625
1969/12/31/18:00:41.308,214,1730345326,461214139,RU_myo,-0.650797455462017,-0.5341629307140179,0.5102378999964796,-0.17547056967582284,24.0,13.1875,2.5625,0.744140625,0.357421875,-0.1826171875
1969/12/31/18:00:41.329,215,1730345326,482254887,RU_myo,-0.6473303088542839,-0.5371633083374083,0.5098809541927859,-0.18011236483396112,29.5,10.75,2.875,0.7607421875,0.31982421875,-0.228515625
1969/12/31/18:00:41.345,216,1730345326,498737638,RU_myo,-0.6418343721842715,-0.5421046874991157,0.5099397279953964,-0.18475015639043268,41.4375,4.5,3.5,0.7880859375,0.38134765625,-0.29345703125
1969/12/31/18:00:41.368,217,1730345326,521071956,RU_myo,-0.6361772615701815,-0.5477362319227486,0.5098939694096993,-0.18780748669782676,40.625,-1.25,3.625,0.8310546875,0.53955078125,-0.30908203125
1969/12/31/18:00:41.389,218,1730345326,542257065,RU_myo,-0.6329859056786703,-0.5515662549048447,0.5095136766565943,-0.18841264013403292,23.25,-3.1875,1.3125,0.8515625,0.638671875,-0.2470703125
