time,.header.seq,.header.stamp.secs,.header.stamp.nsecs,.header.frame_id,.orientation.x,.orientation.y,.orientation.z,.orientation.w,.angular_velocity.x,.angular_velocity.y,.angular_velocity.z,.linear_acceleration.x,.linear_acceleration.y,.linear_acceleration.z
1969/12/31/18:00:23.471,1,1730348265,117644134,RU_myo,-0.2765387133943693,-0.7676680505571346,-0.05822510098835319,-0.5751712282119922,75.875,-19.875,-20.375,0.8701171875,0.38623046875,-0.0869140625
1969/12/31/18:00:23.494,2,1730348265,140764592,RU_myo,-0.2650550638804994,-0.7731942446009777,-0.06847611827628834,-0.572038018363325,93.1875,-15.25,-21.25,0.875,0.3203125,-0.154296875
1969/12/31/18:00:23.514,3,1730348265,161272126,RU_myo,-0.2534074370513698,-0.7782879665893709,-0.0756804484450141,-0.5694953745487312,80.5,-8.5625,-0.625,0.90673828125,0.4296875,-0.2998046875
1969/12/31/18:00:23.531,4,1730348265,177694851,RU_myo,-0.25010615427981653,-0.7793083172276665,-0.08153777992138479,-0.5687504274606174,36.8125,4.875,-8.25,1.01220703125,0.7099609375,-0.3046875
1969/12/31/18:00:23.553,5,1730348265,200075203,RU_myo,-0.25522882588566154,-0.7739255717494199,-0.0892873678313541,-0.5726475545875568,1.1875,34.125,-38.1875,0.947265625,0.72998046875,-0.08056640625
1969/12/31/18:00:23.575,6,1730348265,221865016,RU_myo,-0.2620741466603096,-0.7666309632510827,-0.09655363298011407,-0.5781621777627185,-16.5625,51.5625,-45.5,0.78515625,0.5595703125,-0.11474609375
1969/12/31/18:00:23.591,7,1730348265,237633872,RU_myo,-0.2651251455074217,-0.7627840857623749,-0.09923883208910397,-0.5813955193608884,-18.375,36.1875,-27.75,0.79296875,0.3515625,-0.29150390625
1969/12/31/18:00:23.613,8,1730348265,260130334,RU_myo,-0.26249766684711895,-0.7613714005854009,-0.10375401851664781,-0.583646870043943,14.4375,32.625,-20.125,0.91552734375,0.3671875,-0.36474609375
1969/12/31/18:00:23.636,9,1730348265,282669287,RU_myo,-0.2584095783942733,-0.7596655697386678,-0.1170594169485631,-0.5851750207001163,54.0625,41.4375,-46.25,0.94775390625,0.5546875,-0.3203125
1969/12/31/18:00:23.651,10,1730348265,297749280,RU_myo,-0.2569459694111512,-0.7556408663371647,-0.13854331367299602,-0.5863372750909571,69.375,58.6875,-77.375,0.90576171875,0.82275390625,-0.33154296875
1969/12/31/18:00:23.673,11,1730348265,320071213,RU_myo,-0.25730619642759894,-0.7503746881113209,-0.1595347242556318,-0.5876053271358925,61.9375,57.25,-75.9375,0.86083984375,0.9443359375,-0.25537109375
1969/12/31/18:00:23.694,12,1730348265,341182146,RU_myo,-0.2578651836380248,-0.7441775583664937,-0.17571452395121262,-0.5906180785953055,45.75,52.6875,-61.4375,0.890625,0.865234375,-0.1162109375
1969/12/31/18:00:23.710,13,1730348265,356860215,RU_myo,-0.2621899321322531,-0.7362190761897973,-0.18883045857010966,-0.5946267478502193,15.625,52.0,-73.0,0.9140625,0.71435546875,-0.05322265625
1969/12/31/18:00:23.733,14,1730348265,380117997,RU_myo,-0.26836205530608304,-0.7253770814902882,-0.20262952549833882,-0.6006256507316724,6.0,65.75,-85.125,0.9375,0.724609375,0.0263671875
1969/12/31/18:00:23.754,15,1730348265,401226131,RU_myo,-0.2757408216131951,-0.7127271613100691,-0.21983586530560617,-0.6063490621352574,5.4375,82.0,-102.0625,0.890625,0.8427734375,0.1171875
1969/12/31/18:00:23.771,16,1730348265,417698672,RU_myo,-0.2860553898781183,-0.6973477458389971,-0.23875585346771894,-0.6122696119601627,-5.125,91.1875,-122.0625,0.97314453125,1.04541015625,0.1318359375
1969/12/31/18:00:23.793,17,1730348265,440132374,RU_myo,-0.30363315145997755,-0.6777580194900604,-0.2551128790156193,-0.6191675018214015,-52.4375,97.1875,-142.9375,0.978515625,1.02099609375,0.08837890625
1969/12/31/18:00:23.814,18,1730348265,461231083,RU_myo,-0.32743542729714853,-0.6543215686957556,-0.2676242961226461,-0.6269183055351928,-100.1875,99.75,-155.5,0.91015625,0.93017578125,0.01416015625
1969/12/31/18:00:23.830,19,1730348265,476875503,RU_myo,-0.3539141811754611,-0.6261089126882317,-0.2776264201012541,-0.6369112596563393,-131.4375,117.125,-160.0625,0.802734375,0.8037109375,0.09033203125
1969/12/31/18:00:23.861,20,1730348265,507707550,RU_myo,-0.3813985511464086,-0.5919032083561963,-0.2845383334044738,-0.6505564340965865,-163.25,143.5,-155.25,0.74365234375,0.75048828125,0.23681640625
1969/12/31/18:00:23.874,21,1730348265,521327633,RU_myo,-0.4077006135723174,-0.5513113237123867,-0.28630592489038037,-0.6692271299132425,-200.75,175.8125,-133.5,0.7158203125,0.74365234375,0.30126953125
1969/12/31/18:00:23.890,22,1730348265,537160941,RU_myo,-0.4314304261440003,-0.5029591373394691,-0.2833684352223219,-0.6932548041547177,-237.8125,217.25,-110.3125,0.7080078125,0.66015625,0.35888671875
1969/12/31/18:00:23.913,23,1730348265,560174484,RU_myo,-0.45090695791068186,-0.45011353743790994,-0.2773309714058119,-0.7191441100516465,-251.625,240.0,-87.5,0.67529296875,0.56494140625,0.45263671875
1969/12/31/18:00:23.934,24,1730348265,581309067,RU_myo,-0.4649419135293215,-0.39670811734583744,-0.2695784237410099,-0.7441633961227379,-244.875,245.5,-64.0,0.63330078125,0.509765625,0.48681640625
1969/12/31/18:00:23.950,25,1730348265,597066185,RU_myo,-0.4727460568822768,-0.3447030376027755,-0.26279944757747015,-0.7672205888286988,-219.8125,248.1875,-42.6875,0.6064453125,0.4228515625,0.482421875
1969/12/31/18:00:23.973,26,1730348265,620186124,RU_myo,-0.47341911708561696,-0.2956962256387539,-0.25950471649452667,-0.7880960498809555,-178.25,251.75,-19.3125,0.5595703125,0.3427734375,0.5478515625
1969/12/31/18:00:23.994,27,1730348265,641321386,RU_myo,-0.46561276102815763,-0.2534656962314771,-0.2616439777857795,-0.8065372443291523,-116.5625,244.25,13.625,0.52587890625,0.3115234375,0.59521484375
1969/12/31/18:00:24.010,28,1730348265,657043098,RU_myo,-0.4529846763740358,-0.22124352625382374,-0.2712903377098611,-0.8199132501224464,-41.25,218.25,27.0625,0.4765625,0.337890625,0.5732421875
1969/12/31/18:00:24.041,29,1730348265,687681594,RU_myo,-0.43522246580559243,-0.19579212877637647,-0.28752391479598177,-0.8304076384449433,17.375,207.1875,46.625,0.38134765625,0.38232421875,0.55419921875
1969/12/31/18:00:24.056,30,1730348265,702578758,RU_myo,-0.4134239605039506,-0.17528101779854535,-0.30997642388538016,-0.8380165931030035,67.8125,202.25,60.1875,0.3388671875,0.40185546875,0.47119140625
1969/12/31/18:00:24.070,31,1730348265,717002193,RU_myo,-0.3881035937945944,-0.15666959038696712,-0.33811824337506735,-0.8429153536557861,108.0625,210.0625,68.5625,0.302734375,0.39208984375,0.44873046875
1969/12/31/18:00:24.093,32,1730348265,740174503,RU_myo,-0.3616842051392338,-0.14214689736234823,-0.3674823825756542,-0.8449470361031982,130.0,191.125,75.125,0.17333984375,0.583984375,0.6162109375
1969/12/31/18:00:24.116,33,1730348265,762642830,RU_myo,-0.33488274355719233,-0.13097473440381532,-0.39597580466540255,-0.8449274105714909,131.75,170.25,81.8125,0.0498046875,0.966796875,0.46337890625
1969/12/31/18:00:24.137,34,1730348265,783745253,RU_myo,-0.3132744471383075,-0.11327437636639368,-0.411901274836633,-0.8481540993339294,44.75,168.3125,57.4375,0.02001953125,0.9130859375,0.1943359375
1969/12/31/18:00:24.153,35,1730348265,800042890,RU_myo,-0.29893687273716013,-0.08892425961168687,-0.4138609501900128,-0.8552475291273631,-47.5,160.5,22.9375,-0.01806640625,0.78662109375,0.2431640625
1969/12/31/18:00:24.176,36,1730348265,822774667,RU_myo,-0.2858119435254862,-0.06646363581021877,-0.41318532087711757,-0.862074247767989,-54.3125,143.1875,22.6875,-0.07861328125,0.68603515625,0.3349609375
1969/12/31/18:00:24.197,37,1730348265,843800949,RU_myo,-0.27037139130930404,-0.0513888739238,-0.41715315115103685,-0.8661649628581587,-10.875,118.875,45.4375,-0.08935546875,0.5859375,0.3779296875
1969/12/31/18:00:24.213,38,1730348265,860228887,RU_myo,-0.25334334639328276,-0.04296644564222382,-0.42429365071696024,-0.8683005996476112,19.25,96.1875,62.9375,-0.052734375,0.57275390625,0.42724609375
1969/12/31/18:00:24.236,39,1730348265,882662903,RU_myo,-0.23606502284245853,-0.039120392875391916,-0.4378310428830914,-0.8666296081600081,70.125,83.3125,67.25,-0.02978515625,0.53076171875,0.4189453125
1969/12/31/18:00:24.257,40,1730348265,903693179,RU_myo,-0.21904947797548863,-0.03662014120515274,-0.4562869594162031,-0.8616719225572439,102.625,79.1875,66.625,-0.0419921875,0.61767578125,0.30810546875
1969/12/31/18:00:24.273,41,1730348265,920159086,RU_myo,-0.20293227451499168,-0.03643626101818046,-0.4765399095979113,-0.8546347789574221,118.1875,66.8125,65.4375,-0.08203125,0.7353515625,0.25732421875
1969/12/31/18:00:24.296,42,1730348265,942766913,RU_myo,-0.18871334519340724,-0.038328583693874436,-0.49619647361655916,-0.8465856439772806,119.25,50.3125,60.6875,-0.08984375,0.9970703125,0.28662109375
1969/12/31/18:00:24.318,43,1730348265,965168599,RU_myo,-0.1768708245537017,-0.040647332350850704,-0.5092512629662136,-0.8412655091953845,65.0625,36.8125,48.75,-0.0380859375,1.14404296875,0.330078125
1969/12/31/18:00:24.333,44,1730348265,979959896,RU_myo,-0.1685097279265889,-0.041074627632957016,-0.5122427187569215,-0.8411449005013574,0.4375,26.875,33.625,-0.0263671875,1.17333984375,0.36328125
1969/12/31/18:00:24.356,45,1730348266,2749605,RU_myo,-0.16283253286362492,-0.04003678469210568,-0.5068071037854353,-0.8455939815687867,-52.75,17.4375,26.8125,-0.0634765625,1.0283203125,0.34716796875
1969/12/31/18:00:24.377,46,1730348266,23693624,RU_myo,-0.15831890185392053,-0.04003747093915646,-0.4983322411862996,-0.8514676174880668,-66.5,8.0,25.3125,-0.025390625,0.8701171875,0.35400390625
1969/12/31/18:00:24.393,47,1730348266,39580020,RU_myo,-0.15465445570980038,-0.041257463322740745,-0.4913055913432885,-0.8561533956973479,-50.0625,1.125,23.5,-0.01025390625,0.7705078125,0.38623046875
1969/12/31/18:00:24.416,48,1730348266,62641615,RU_myo,-0.15026350056257054,-0.0448593309965432,-0.49125544923969555,-0.8567827054822768,0.75,-2.25,26.5,0.03369140625,0.7294921875,0.4169921875
1969/12/31/18:00:24.437,49,1730348266,83723430,RU_myo,-0.14555732273154567,-0.04980074438110745,-0.49764126186709584,-0.853631141738419,43.375,-3.9375,28.6875,0.01123046875,0.8056640625,0.4296875
1969/12/31/18:00:24.453,50,1730348266,100138315,RU_myo,-0.1414139521041893,-0.05462472470144559,-0.5069418585141978,-0.8485447458370927,58.5625,-5.0,24.8125,-0.0205078125,0.95556640625,0.4150390625
1969/12/31/18:00:24.475,51,1730348266,122554434,RU_myo,-0.13878430699558977,-0.05791834095814191,-0.5158333169422713,-0.8433862525822582,55.0,-1.625,12.4375,-0.0078125,1.02294921875,0.42578125
1969/12/31/18:00:24.504,52,1730348266,151303622,RU_myo,-0.1370164599822442,-0.06005532143542463,-0.5206015161018009,-0.8405914046037636,36.25,0.0,7.25,0.021484375,0.90234375,0.49609375
1969/12/31/18:00:24.512,53,1730348266,159457441,RU_myo,-0.13530609679916594,-0.06237385247124384,-0.525295252661444,-0.8377748266856793,34.5,-0.1875,4.8125,0.0595703125,1.01123046875,0.51708984375
1969/12/31/18:00:24.536,54,1730348266,182650663,RU_myo,-0.13481840914537013,-0.06335061507147768,-0.5274335408937477,-0.8364356257751462,18.125,0.0625,-0.75,0.02197265625,1.0244140625,0.54345703125
1969/12/31/18:00:24.557,55,1730348266,203860728,RU_myo,-0.13500195824615763,-0.06280154386767459,-0.52560436908495,-0.8375980447424354,-9.625,2.4375,-3.5625,0.00341796875,0.943359375,0.50830078125
1969/12/31/18:00:24.573,56,1730348266,220207989,RU_myo,-0.13524539232273142,-0.061641627367309895,-0.522855268966083,-0.8393636645372405,-16.125,3.4375,-2.8125,-0.0322265625,0.84423828125,0.47802734375
1969/12/31/18:00:24.596,57,1730348266,242657236,RU_myo,-0.13512624319994204,-0.06005610808886313,-0.5204862701034805,-0.8409686111345986,-10.5,6.75,-1.4375,-0.04296875,0.775390625,0.50244140625
1969/12/31/18:00:24.617,58,1730348266,263748929,RU_myo,-0.1343935082175348,-0.05871324019312828,-0.5202408101935815,-0.8413326570293901,1.625,8.3125,1.1875,-0.05615234375,0.75732421875,0.46240234375
1969/12/31/18:00:24.633,59,1730348266,280113845,RU_myo,-0.13304880048914713,-0.05761379250539215,-0.5232845942174071,-0.839733232078062,22.0,10.75,1.5,-0.05126953125,0.81201171875,0.45166015625
1969/12/31/18:00:24.656,60,1730348266,302783096,RU_myo,-0.1309785721493405,-0.05694455163808699,-0.5278204529112286,-0.8372619071503508,34.3125,12.3125,4.625,-0.0419921875,0.8388671875,0.48291015625
1969/12/31/18:00:24.677,61,1730348266,323824194,RU_myo,-0.12890074758924083,-0.05676027237594412,-0.5338517230885841,-0.8337656784169598,39.6875,10.5,4.75,-0.03857421875,0.8876953125,0.40869140625
1969/12/31/18:00:24.693,62,1730348266,340166191,RU_myo,-0.12749339891787798,-0.05645351555722218,-0.5390853004507498,-0.8306295640365339,29.8125,7.75,2.6875,-0.064453125,0.978515625,0.369140625
1969/12/31/18:00:24.716,63,1730348266,362762298,RU_myo,-0.1267617806632197,-0.05602663199269894,-0.542384181393372,-0.8286204603103197,21.5,6.1875,-0.3125,-0.048828125,0.95556640625,0.42041015625
1969/12/31/18:00:24.737,64,1730348266,383729832,RU_myo,-0.12603111587150725,-0.05596635992938119,-0.544588691003128,-0.8272889954664798,16.875,4.8125,-0.8125,-0.0048828125,0.896484375,0.42431640625
1969/12/31/18:00:24.753,65,1730348266,399566770,RU_myo,-0.12535639894912393,-0.05541558434557182,-0.5462218941551408,-0.8263513348447604,9.5,5.5,0.3125,-0.046875,0.89990234375,0.37548828125
1969/12/31/18:00:24.782,66,1730348266,428680303,RU_myo,-0.1256021707518468,-0.05474496946764167,-0.5484261935743903,-0.8248974440631492,10.125,1.9375,-2.1875,-0.0966796875,0.9521484375,0.34228515625
1969/12/31/18:00:24.797,67,1730348266,443767271,RU_myo,-0.12645954046984528,-0.05450210889940726,-0.550330924911484,-0.8235128279727907,13.0625,-0.5,-6.5625,-0.04443359375,0.88037109375,0.37353515625
1969/12/31/18:00:24.813,68,1730348266,460210152,RU_myo,-0.12743820437724873,-0.054564058770718564,-0.552537387082008,-0.8218787644367966,14.625,-0.5,-10.75,0.0185546875,0.9375,0.37841796875
1969/12/31/18:00:24.836,69,1730348266,482789066,RU_myo,-0.1290236191562251,-0.053586914673209855,-0.5543621252582747,-0.8204657106514353,10.9375,2.0,-16.1875,-0.005859375,1.06689453125,0.42578125
1969/12/31/18:00:24.857,70,1730348266,503742208,RU_myo,-0.13195267496390925,-0.050901263145189786,-0.5537495929452122,-0.8205845119749121,-5.125,3.9375,-24.4375,-0.037109375,1.0791015625,0.46240234375
1969/12/31/18:00:24.873,71,1730348266,519519780,RU_myo,-0.13585661178851702,-0.04662823513316577,-0.5503840633912158,-0.8224634772965207,-23.1875,7.125,-32.375,-0.0322265625,0.9794921875,0.462890625
1969/12/31/18:00:24.896,72,1730348266,542701419,RU_myo,-0.1403088938614101,-0.041500673260443176,-0.5469544614118996,-0.8242766074346258,-25.0,9.4375,-38.0625,-0.0419921875,0.95166015625,0.44677734375
1969/12/31/18:00:24.918,73,1730348266,565153167,RU_myo,-0.14531718193797652,-0.03588681351513238,-0.5439781783339709,-0.8256408388311408,-25.0,9.9375,-42.0,-0.06689453125,0.9736328125,0.4169921875
1969/12/31/18:00:24.932,74,1730348266,579376198,RU_myo,-0.15050494026131503,-0.029905685615589764,-0.5401333014244274,-0.8274720113799308,-27.1875,11.0,-43.8125,-0.06201171875,0.8798828125,0.453125
1969/12/31/18:00:24.956,75,1730348266,602622032,RU_myo,-0.1544702134382722,-0.0242294250237037,-0.5365871657642391,-0.8292322362646403,-19.0625,15.0625,-38.875,-0.03515625,0.75048828125,0.49169921875
1969/12/31/18:00:24.977,76,1730348266,623673265,RU_myo,-0.15654533235779364,-0.019224865377272905,-0.536282197047927,-0.8291714952877132,1.3125,19.8125,-28.75,-0.0556640625,0.7431640625,0.466796875
1969/12/31/18:00:24.993,77,1730348266,639515156,RU_myo,-0.1572189429071435,-0.014159470013376278,-0.5386701824916338,-0.82759660940251,17.4375,25.125,-20.875,-0.12158203125,0.767578125,0.4501953125
1969/12/31/18:00:25.016,78,1730348266,662653312,RU_myo,-0.157951526681465,-0.008666582994114385,-0.5422107276036071,-0.8252173849536663,21.5625,25.75,-19.9375,-0.18310546875,0.79345703125,0.4072265625
1969/12/31/18:00:25.038,79,1730348266,685154948,RU_myo,-0.15874901997835245,-0.0034789289268612415,-0.5458866723131043,-0.8226751404414504,22.125,23.6875,-19.0,-0.203125,0.78466796875,0.3779296875
1969/12/31/18:00:25.061,80,1730348266,707677262,RU_myo,-0.15923111932692938,0.0009154721310478883,-0.5494663730549426,-0.8202019979435048,23.3125,21.75,-15.5,-0.193359375,0.755859375,0.37353515625
1969/12/31/18:00:25.076,81,1730348266,722691933,RU_myo,-0.1590484591526639,0.004516341510858454,-0.5527635819438516,-0.8180070982437277,21.625,19.8125,-9.5625,-0.20166015625,0.7490234375,0.36279296875
1969/12/31/18:00:25.098,82,1730348266,745196116,RU_myo,-0.15807529734805997,0.00775118253405545,-0.5559489897851267,-0.8160103187426879,21.0,19.9375,-3.3125,-0.22021484375,0.7470703125,0.35595703125
1969/12/31/18:00:25.119,83,1730348266,766285774,RU_myo,-0.15636750317549486,0.010436706886420618,-0.5586995019783294,-0.814429337382437,16.625,18.875,3.0625,-0.240234375,0.79150390625,0.34814453125
1969/12/31/18:00:25.136,84,1730348266,782633175,RU_myo,-0.15410640555364022,0.012572641403584113,-0.5604590582966646,-0.8136207890833971,7.875,16.8125,6.75,-0.24365234375,0.85107421875,0.3349609375
1969/12/31/18:00:25.158,85,1730348266,805176623,RU_myo,-0.1519049536806054,0.014464232230736632,-0.5608704396644288,-0.8137198663814832,-1.1875,14.1875,9.25,-0.2587890625,0.85205078125,0.33447265625
1969/12/31/18:00:25.179,86,1730348266,826245166,RU_myo,-0.149652110636976,0.015380233230227552,-0.5605240555016263,-0.8143589364719295,-5.375,9.375,12.25,-0.25048828125,0.86083984375,0.3427734375
1969/12/31/18:00:25.196,87,1730348266,842633164,RU_myo,-0.1474502763424868,0.016173147032598926,-0.5593467643538458,-0.8155538256476205,-9.75,8.375,11.4375,-0.2197265625,0.841796875,0.35107421875
1969/12/31/18:00:25.218,88,1730348266,865159841,RU_myo,-0.14495403903631787,0.016784151888415755,-0.5581493418893166,-0.816808380809702,-7.875,9.125,13.8125,-0.216796875,0.80810546875,0.375
1969/12/31/18:00:25.239,89,1730348266,886306848,RU_myo,-0.14177729238424647,0.016234507005686426,-0.5583815962218989,-0.8172182285945159,2.375,7.3125,19.3125,-0.203125,0.810546875,0.3720703125
1969/12/31/18:00:25.256,90,1730348266,902661609,RU_myo,-0.13829889084773012,0.015319073964157218,-0.5595429087784597,-0.8170376221441144,7.3125,7.375,20.5625,-0.197265625,0.87890625,0.37744140625
1969/12/31/18:00:25.278,91,1730348266,925185080,RU_myo,-0.1351859282965092,0.014891813320247515,-0.560762216337845,-0.8167305157850502,7.6875,8.0625,17.625,-0.20166015625,0.9033203125,0.38232421875
1969/12/31/18:00:25.299,92,1730348266,946169787,RU_myo,-0.13225884024552217,0.014220724401110598,-0.5618101635717728,-0.8165015066011055,6.0,6.6875,17.0625,-0.1865234375,0.888671875,0.35986328125
1969/12/31/18:00:25.316,93,1730348266,962807883,RU_myo,-0.12920599986369194,0.01330510532370564,-0.5621101836299492,-0.8167991951704247,-0.4375,5.0,17.9375,-0.17236328125,0.88037109375,0.33447265625
1969/12/31/18:00:25.338,94,1730348266,985247964,RU_myo,-0.12633818142401268,0.012023488763541304,-0.5618081932405975,-0.8174751700450367,-4.125,2.5625,19.0,-0.1689453125,0.8759765625,0.33056640625
1969/12/31/18:00:25.359,95,1730348267,6274804,RU_myo,-0.12334959608694213,0.010436804023190055,-0.561329161410988,-0.818282055783094,-3.6875,1.5,20.0,-0.15673828125,0.8720703125,0.35888671875
1969/12/31/18:00:25.376,96,1730348267,22636592,RU_myo,-0.12010813326899193,0.008483247217677783,-0.5602604996998709,-0.8195182995609877,-4.75,1.3125,21.6875,-0.12841796875,0.8466796875,0.39111328125
1969/12/31/18:00:25.398,97,1730348267,45081850,RU_myo,-0.11669276820075213,0.006408337165836283,-0.5589290644259874,-0.8209385068348937,-8.9375,0.4375,22.75,-0.12451171875,0.8935546875,0.3740234375
1969/12/31/18:00:25.419,98,1730348267,66204775,RU_myo,-0.11357847238565774,0.004333192659528049,-0.5572729883683185,-0.822513203837458,-15.5625,-1.5625,22.3125,-0.14208984375,0.96826171875,0.33837890625
1969/12/31/18:00:25.436,99,1730348267,82701015,RU_myo,-0.11108053803477502,0.002563397031571731,-0.5543040914460586,-0.8248645448021893,-22.8125,-2.8125,18.875,-0.130859375,0.9228515625,0.3564453125
1969/12/31/18:00:25.466,100,1730348267,113276822,RU_myo,-0.10882290240383935,0.00036620157847618403,-0.5521099131492601,-0.8266390298135727,-13.0625,-4.1875,18.0625,-0.0986328125,0.81982421875,0.373046875
1969/12/31/18:00:25.487,101,1730348267,133695493,RU_myo,-0.10595096708443512,-0.0026243615118840494,-0.5519703607785894,-0.8271010978849451,1.125,-4.4375,22.0625,-0.0830078125,0.837890625,0.3818359375
1969/12/31/18:00:25.496,102,1730348267,142599676,RU_myo,-0.1035102843038438,-0.0057980406891893635,-0.5529499857269015,-0.8267395702711486,5.5625,-6.875,21.625,-0.10888671875,0.9169921875,0.35498046875
1969/12/31/18:00:25.518,103,1730348267,165218130,RU_myo,-0.10192521584955593,-0.009399091760977012,-0.5532647195666015,-0.8266928435222964,1.4375,-12.75,19.5,-0.107421875,0.9091796875,0.34912109375
1969/12/31/18:00:25.539,104,1730348267,186271641,RU_myo,-0.10003163855623749,-0.014037386740655657,-0.5536223266282064,-0.8266189826758271,4.1875,-14.875,21.375,-0.046875,0.85107421875,0.349609375
1969/12/31/18:00:25.556,105,1730348267,202669792,RU_myo,-0.09740801824763601,-0.019042168980740872,-0.5537487152636601,-0.8267475032471663,2.625,-14.4375,26.875,-0.048828125,0.86474609375,0.349609375
1969/12/31/18:00:25.578,106,1730348267,225113684,RU_myo,-0.09514884880505103,-0.023497310320682904,-0.5527055643223491,-0.8275935790869096,-7.375,-15.5625,26.875,-0.09326171875,0.92578125,0.3564453125
1969/12/31/18:00:25.599,107,1730348267,246202655,RU_myo,-0.09399352663341673,-0.027892884202254185,-0.5503504088659212,-0.8291571813733547,-13.75,-18.8125,21.8125,-0.072265625,0.880859375,0.373046875
1969/12/31/18:00:25.616,108,1730348267,262577927,RU_myo,-0.09258693918200839,-0.033323974155159246,-0.5476483884509962,-0.8309021687698498,-12.0,-21.5625,23.3125,-0.01318359375,0.787109375,0.39208984375
1969/12/31/18:00:25.638,109,1730348267,285248158,RU_myo,-0.09020818508989392,-0.04003827430241571,-0.5449721817778503,-0.8326252104170047,-17.3125,-24.25,30.625,0.0244140625,0.84326171875,0.3232421875
1969/12/31/18:00:25.659,110,1730348267,306276563,RU_myo,-0.08666637519752934,-0.04632378786966533,-0.5438620206937915,-0.8334009530438473,-3.375,-12.3125,21.125,0.21435546875,1.43310546875,0.63623046875
1969/12/31/18:00:25.675,111,1730348267,321971494,RU_myo,-0.08776620571364849,-0.04479860569806536,-0.5406959780370041,-0.8354268593938946,-19.9375,4.0,-10.625,0.01171875,1.2509765625,0.60595703125
1969/12/31/18:00:25.698,112,1730348267,345132823,RU_myo,-0.0886212030639115,-0.04156407664361138,-0.5258069314019267,-0.8449531234275418,-99.375,6.25,-1.9375,-0.07861328125,0.8310546875,0.46337890625
1969/12/31/18:00:25.719,113,1730348267,366259400,RU_myo,-0.09105988151126325,-0.040952533843202174,-0.5183455587635113,-0.8493225945782436,-58.4375,-8.875,-7.0,-0.068359375,0.78857421875,0.27783203125
1969/12/31/18:00:25.735,114,1730348267,382048395,RU_myo,-0.0924646649611994,-0.04156332464592528,-0.5171307631790379,-0.8498814914750505,-0.8125,-6.9375,-5.5,-0.00390625,0.72314453125,0.48291015625
1969/12/31/18:00:25.758,115,1730348267,405196363,RU_myo,-0.09173173339826159,-0.0420513401938804,-0.5185314750177182,-0.8490830838566967,20.375,3.25,-0.875,0.06298828125,0.70849609375,0.5400390625
1969/12/31/18:00:25.781,116,1730348267,427696099,RU_myo,-0.08941442958302283,-0.043028786932444434,-0.5229981208852714,-0.8465379783730557,35.3125,5.6875,8.25,0.0400390625,0.6962890625,0.43017578125
1969/12/31/18:00:25.795,117,1730348267,442049360,RU_myo,-0.08654134562145824,-0.044247161900957135,-0.5266938030417381,-0.8444799713428192,23.9375,3.9375,15.875,-0.01416015625,0.7353515625,0.3388671875
1969/12/31/18:00:25.818,118,1730348267,465190394,RU_myo,-0.08453021230983844,-0.04589654848880759,-0.527322046467151,-0.8442035355015779,-4.125,-3.625,18.4375,-0.078125,0.87548828125,0.2802734375
1969/12/31/18:00:25.839,119,1730348267,486194846,RU_myo,-0.08696934207259538,-0.04986242278828802,-0.5231587370149386,-0.84631850282153,-51.125,-32.1875,9.5,-0.126953125,1.0078125,0.09814453125
1969/12/31/18:00:25.855,120,1730348267,502076163,RU_myo,-0.09447680187247497,-0.05999398981953675,-0.5036321505501702,-0.8566384955310455,-134.1875,-79.3125,6.875,-0.14111328125,0.96044921875,-0.23974609375
1969/12/31/18:00:25.878,121,1730348267,525256363,RU_myo,-0.1060707728378095,-0.07708134988156122,-0.47274120046126145,-0.8713915388827641,-203.8125,-129.5625,12.0625,-0.05712890625,0.90234375,-0.4150390625
1969/12/31/18:00:25.899,122,1730348267,546171952,RU_myo,-0.12224835777835964,-0.10039867625831334,-0.4352236841325425,-0.8863158520505935,-232.5,-176.0,7.9375,0.0439453125,0.8193359375,-0.20654296875
1969/12/31/18:00:25.915,123,1730348267,562052382,RU_myo,-0.14281484803441843,-0.12725169151784718,-0.39060471257276835,-0.90046592645291,-262.3125,-208.875,-3.6875,0.19921875,0.57421875,-0.0283203125
1969/12/31/18:00:25.938,124,1730348267,585231584,RU_myo,-0.16667791698804732,-0.1549598063832487,-0.34208338510362696,-0.9116934177837609,-273.0,-223.5625,-21.0,0.42529296875,0.32421875,0.10986328125
1969/12/31/18:00:25.959,125,1730348267,606225977,RU_myo,-0.1912158435978956,-0.18376983883602413,-0.30125802872620894,-0.9159196185361057,-215.125,-226.5625,-38.5,0.7119140625,0.20458984375,0.34228515625
1969/12/31/18:00:25.975,126,1730348267,622025178,RU_myo,-0.21293614992732743,-0.21501119409400246,-0.27414995284424043,-0.9128363412046536,-121.9375,-225.75,-43.5625,0.90283203125,0.16796875,0.5322265625
1969/12/31/18:00:25.998,127,1730348267,645247172,RU_myo,-0.2294205232078158,-0.2495001593172522,-0.25798365299266757,-0.9047432391680398,-46.8125,-229.25,-28.9375,0.8154296875,0.22802734375,0.60693359375
1969/12/31/18:00:26.022,128,1730348267,668418679,RU_myo,-0.24034869064976017,-0.28795457655804174,-0.24968676827023079,-0.8927324271544037,10.8125,-239.375,-7.9375,0.6572265625,0.36279296875,0.52587890625
1969/12/31/18:00:26.042,129,1730348267,688698329,RU_myo,-0.24821634692914712,-0.3287172964249782,-0.24424927966816987,-0.8778814689522627,35.5,-248.625,4.3125,0.66015625,0.57763671875,0.541015625
1969/12/31/18:00:26.058,130,1730348267,705057609,RU_myo,-0.25730521454625727,-0.36954057734288137,-0.23771437634195258,-0.8606542067199526,30.5625,-257.1875,-2.375,0.70556640625,0.67236328125,0.5068359375
1969/12/31/18:00:26.081,131,1730348267,727629647,RU_myo,-0.26712966644385633,-0.41280901618145854,-0.22776511655665335,-0.8404483976692587,19.4375,-279.0625,-1.625,0.8701171875,0.56591796875,0.2939453125
1969/12/31/18:00:26.102,132,1730348267,748685170,RU_myo,-0.27384308417176445,-0.4609010411555973,-0.21439954417102933,-0.8164637352462369,24.6875,-313.25,19.375,1.02197265625,0.43212890625,0.33935546875
1969/12/31/18:00:26.118,133,1730348267,765206018,RU_myo,-0.2790324944120569,-0.506799176202476,-0.19822780880366597,-0.7912023747939426,15.625,-310.625,28.3125,1.21630859375,0.45263671875,0.46484375
1969/12/31/18:00:26.141,134,1730348267,787675663,RU_myo,-0.2857421287937709,-0.5489642136907239,-0.17765812407489687,-0.7651322231284721,-13.6875,-306.6875,29.5625,1.14306640625,0.42626953125,0.421875
1969/12/31/18:00:26.162,135,1730348267,808799714,RU_myo,-0.29196875734406286,-0.5897964195177725,-0.15196534401896247,-0.7374286151731421,-36.0,-313.75,44.125,1.1787109375,0.45068359375,0.29052734375
1969/12/31/18:00:26.186,136,1730348267,832702586,RU_myo,-0.2998414546561965,-0.6273906276950336,-0.12535606510560302,-0.7076453626579684,-48.8125,-311.75,35.4375,1.20947265625,0.51123046875,0.3017578125
1969/12/31/18:00:26.201,137,1730348267,847654767,RU_myo,-0.31083950908927327,-0.6593972228942683,-0.09722508108761287,-0.6775849656212668,-73.4375,-299.0,23.625,1.267578125,0.52490234375,0.46875
1969/12/31/18:00:26.221,138,1730348267,868536638,RU_myo,-0.3207859609440378,-0.6855152042091766,-0.06835621694393498,-0.6499943843329532,-83.8125,-269.125,32.9375,1.26611328125,0.57470703125,0.4921875
1969/12/31/18:00:26.238,139,1730348267,885120856,RU_myo,-0.3337778176026598,-0.7045403412699038,-0.03960903339259941,-0.6250171201442382,-109.875,-232.6875,24.5,1.1533203125,0.56201171875,0.38671875
1969/12/31/18:00:26.261,140,1730348267,907658449,RU_myo,-0.3479467589088876,-0.7192689973234943,-0.013366135800920257,-0.6011709481235824,-113.8125,-209.3125,10.0,1.22119140625,0.52783203125,0.40087890625
1969/12/31/18:00:26.282,141,1730348267,928730449,RU_myo,-0.35892204060412924,-0.7317590999563867,0.00628617075025086,-0.5793652323507905,-82.8125,-179.6875,-3.6875,1.2099609375,0.42333984375,0.34130859375
1969/12/31/18:00:26.299,142,1730348267,945789584,RU_myo,-0.36313388021729387,-0.7428071354831401,0.01684452956974338,-0.5622166898423044,-26.4375,-138.0,-10.75,1.1748046875,0.3564453125,0.37255859375
1969/12/31/18:00:26.321,143,1730348267,967636372,RU_myo,-0.36381243420666115,-0.7484368194390683,0.01940821239351086,-0.5541715991606246,18.0625,-89.6875,-19.5625,1.01416015625,0.44140625,0.3955078125
1969/12/31/18:00:26.326,144,1730348267,973106199,RU_myo,-0.3606353898072237,-0.753495434516836,0.014342412693297947,-0.5495280165551265,53.75,-47.5625,-20.375,0.92578125,0.6083984375,0.21826171875
1969/12/31/18:00:26.351,145,1730348267,998497170,RU_myo,-0.3552785757035177,-0.7575532866572859,0.005309952943859481,-0.5475965265782444,71.5625,-21.1875,-24.125,0.91455078125,0.6298828125,0.1435546875
1969/12/31/18:00:26.367,146,1730348268,13459795,RU_myo,-0.3512401188953762,-0.7585687989140975,-0.004577412496464503,-0.5488012422427841,64.125,0.4375,-30.125,0.97216796875,0.5947265625,0.1923828125
1969/12/31/18:00:26.386,147,1730348268,33192635,RU_myo,-0.34720441976794786,-0.7568433836425245,-0.01483049288163321,-0.5535496725778322,58.125,25.875,-30.625,0.990234375,0.5126953125,0.1806640625
1969/12/31/18:00:26.409,148,1730348268,55629414,RU_myo,-0.3415845961286857,-0.7537808373745573,-0.02648699566193489,-0.5607431247508243,64.5,46.3125,-31.1875,0.939453125,0.40673828125,0.15771484375
1969/12/31/18:00:26.424,149,1730348268,70621838,RU_myo,-0.33275826035300765,-0.7527343405967798,-0.038878762260613695,-0.5667022097171086,75.5,50.375,-28.3125,0.85546875,0.31591796875,-0.0625
1969/12/31/18:00:26.446,150,1730348268,93054783,RU_myo,-0.31932407230591164,-0.7550378628624681,-0.050779363180144976,-0.5704133753385036,91.9375,43.4375,-13.125,0.8173828125,0.30517578125,-0.298828125
1969/12/31/18:00:26.469,151,1730348268,115598468,RU_myo,-0.3052879977033756,-0.7583983725434118,-0.061765584501362686,-0.5725523203629281,90.5,38.5625,-2.5625,0.89208984375,0.47021484375,-0.44580078125
1969/12/31/18:00:26.484,152,1730348268,130571412,RU_myo,-0.296060651246281,-0.7599561387999776,-0.07116197059434419,-0.5742392635696265,65.9375,32.8125,-9.25,0.92626953125,0.5517578125,-0.3642578125
1969/12/31/18:00:26.506,153,1730348268,153135071,RU_myo,-0.29032931690852337,-0.7582618106519854,-0.07738860076518976,-0.5785835451529959,39.6875,37.9375,-3.5625,0.83251953125,0.4970703125,-0.17529296875
1969/12/31/18:00:26.529,154,1730348268,175580219,RU_myo,-0.28733889565443466,-0.75624814274726,-0.07982992258198822,-0.5823678297227306,14.0625,32.625,6.8125,0.71875,0.49072265625,-0.201171875
1969/12/31/18:00:26.544,155,1730348268,190615704,RU_myo,-0.2852713675604077,-0.7561461216743456,-0.08007617335028988,-0.583481872887783,2.0,18.3125,10.4375,0.68701171875,0.47802734375,-0.33251953125
1969/12/31/18:00:26.566,156,1730348268,212985286,RU_myo,-0.28203075500188046,-0.7579614685930217,-0.08025761584667232,-0.5826763942875899,8.0625,7.6875,9.25,0.72998046875,0.4482421875,-0.40283203125
1969/12/31/18:00:26.589,157,1730348268,235607955,RU_myo,-0.27831126094999875,-0.7604733139116193,-0.08092998509203911,-0.5810968235756443,14.0625,2.0,7.25,0.76123046875,0.4541015625,-0.40380859375
1969/12/31/18:00:26.604,158,1730348268,250563027,RU_myo,-0.2762288069894664,-0.7627723441790435,-0.08184331201344994,-0.5789453077998405,10.375,-3.125,4.375,0.7607421875,0.53515625,-0.3564453125
1969/12/31/18:00:26.626,159,1730348268,273089928,RU_myo,-0.2755532902137854,-0.7646527515146218,-0.08214722671711076,-0.5767394446335042,4.75,-8.0,3.9375,0.75634765625,0.5634765625,-0.2861328125
1969/12/31/18:00:26.644,160,1730348268,290867189,RU_myo,-0.2750075572238521,-0.7664935444239589,-0.08043940533090038,-0.5747938690488769,-1.6875,-12.75,8.4375,0.77587890625,0.49853515625,-0.24755859375
1969/12/31/18:00:26.663,161,1730348268,310471199,RU_myo,-0.2748919068085829,-0.7682813771994763,-0.07665724577077711,-0.5729762924331653,-11.3125,-16.3125,11.625,0.798828125,0.42919921875,-0.244140625
1969/12/31/18:00:26.686,162,1730348268,333138002,RU_myo,-0.2749431001575126,-0.7699017110958983,-0.07207720339312373,-0.5713689908267776,-14.8125,-16.875,11.875,0.80712890625,0.38330078125,-0.23291015625
