time,.header.seq,.header.stamp.secs,.header.stamp.nsecs,.header.frame_id,.orientation.x,.orientation.y,.orientation.z,.orientation.w,.angular_velocity.x,.angular_velocity.y,.angular_velocity.z,.linear_acceleration.x,.linear_acceleration.y,.linear_acceleration.z
1969/12/31/18:00:07.118000,1,1730348248,768169501,RL_myo,-0.7326686235745093,-0.1646124023475884,0.4471451463101346,0.4859636438604001,132.375,148.0,-21.9375,0.5048828125,1.54345703125,0.50634765625
1969/12/31/18:00:07.141000,2,1730348248,790614734,RL_myo,-0.7348062193919386,-0.196534265839525,0.4337181655452376,0.4830348384639756,92.875,153.875,-68.8125,0.412109375,1.578125,0.46875
1969/12/31/18:00:07.157000,3,1730348248,806980880,RL_myo,-0.7336716620434071,-0.2284026089323152,0.4156048541475506,0.4866525924685594,67.8125,156.5,-109.875,0.1787109375,1.5166015625,0.42724609375
1969/12/31/18:00:07.178000,4,1730348248,828113996,RL_myo,-0.729421622809316,-0.2618373995357682,0.3945871300696366,0.4936458945093923,65.3125,159.5,-141.25,-0.06005859375,1.21142578125,0.4423828125
1969/12/31/18:00:07.194000,5,1730348248,844476439,RL_myo,-0.718495381885523,-0.3027909946936867,0.3745062574965655,0.5018237368215062,113.25,158.875,-182.5,-0.12646484375,0.880859375,0.65380859375
1969/12/31/18:00:07.217000,6,1730348248,867021164,RL_myo,-0.6985998857531551,-0.3549761432413376,0.3600419994808546,0.506280451889081,200.5625,157.1875,-209.75,-0.1005859375,0.7646484375,0.55419921875
1969/12/31/18:00:07.238000,7,1730348248,888071664,RL_myo,-0.6725404990343201,-0.4110681786910015,0.3477142411288249,0.5077470198263462,239.625,153.375,-218.625,-0.2060546875,0.9208984375,0.46875
1969/12/31/18:00:07.254000,8,1730348248,904494402,RL_myo,-0.6441486677213031,-0.4632450623464744,0.3339148532407854,0.5088981989255472,225.5625,143.625,-218.375,-0.40966796875,1.0390625,0.35595703125
1969/12/31/18:00:07.277000,9,1730348248,926996361,RL_myo,-0.6145053033939119,-0.509646333267696,0.3180559332524508,0.5113553269600908,200.6875,129.0,-220.9375,-0.484375,0.9501953125,0.3603515625
1969/12/31/18:00:07.298000,10,1730348248,948061172,RL_myo,-0.5849437981544413,-0.5514364791658365,0.3005893370107078,0.5132295908473181,181.9375,123.8125,-215.5625,-0.4921875,0.732421875,0.32958984375
1969/12/31/18:00:07.314000,11,1730348248,963880052,RL_myo,-0.5571695903388263,-0.5887846465109713,0.2840472421335193,0.5120662573055923,169.8125,121.0625,-188.375,-0.55322265625,0.6015625,0.2978515625
1969/12/31/18:00:07.337000,12,1730348248,987023051,RL_myo,-0.532823304622128,-0.6203454831820514,0.2711722729021895,0.5076774625254136,156.5,109.3125,-145.0625,-0.66064453125,0.52294921875,0.291015625
1969/12/31/18:00:07.366000,13,1730348249,15739075,RL_myo,-0.5119064685230214,-0.6443539511383732,0.2630638940424731,0.5035445767634346,135.0625,77.9375,-105.625,-0.74658203125,0.4755859375,0.27392578125
1969/12/31/18:00:07.374000,14,1730348249,24542069,RL_myo,-0.4944216646605637,-0.6604902178689817,0.2607294595025217,0.5013183006445958,111.625,36.5,-67.5,-0.748046875,0.3359375,0.19677734375
1969/12/31/18:00:07.397000,15,1730348249,46838883,RL_myo,-0.4771794981754184,-0.6699922424496761,0.2616003235072708,0.504950881095579,94.9375,-10.9375,-27.125,-0.8046875,0.2373046875,0.08544921875
1969/12/31/18:00:07.418000,16,1730348249,68048655,RL_myo,-0.4608090953012004,-0.6704009407666736,0.2727013295106971,0.513664814047007,85.5,-84.375,8.375,-0.7529296875,0.318359375,0.03271484375
1969/12/31/18:00:07.434000,17,1730348249,83812079,RL_myo,-0.4480698425953265,-0.662918752271876,0.2963328001362635,0.52149689894217,85.5625,-135.0625,43.6875,-0.32470703125,0.7685546875,-0.12646484375
1969/12/31/18:00:07.457000,18,1730348249,106980557,RL_myo,-0.4268639008875035,-0.660436698813794,0.3223756254629387,0.5269578095886052,141.1875,-132.0625,23.0625,-0.083984375,0.5478515625,-0.15185546875
1969/12/31/18:00:07.478000,19,1730348249,128101306,RL_myo,-0.4083369769733838,-0.6551092337601389,0.3490701302407746,0.5312653284867463,130.4375,-131.8125,43.625,-0.09228515625,0.31201171875,0.0087890625
1969/12/31/18:00:07.494000,20,1730348249,143841962,RL_myo,-0.4005004381351141,-0.6411546940885972,0.3822514849192654,0.5314168416401157,98.75,-136.4375,123.8125,0.12060546875,0.39794921875,0.01123046875
1969/12/31/18:00:07.517000,21,1730348249,166986666,RL_myo,-0.4021523314706124,-0.6210809113742529,0.4152746188080205,0.5292249000123965,54.875,-126.25,164.0,0.42431640625,0.81640625,-0.0205078125
1969/12/31/18:00:07.538000,22,1730348249,188086967,RL_myo,-0.4053318369968935,-0.6027792835689385,0.4424409706957508,0.5259365215181797,34.9375,-100.625,146.9375,0.3876953125,0.87109375,-0.21728515625
1969/12/31/18:00:07.554000,23,1730348249,203848297,RL_myo,-0.4050293210166295,-0.5881348006805669,0.4697265904978874,0.5190429996873746,64.5625,-86.0,139.9375,0.24853515625,0.58642578125,-0.2216796875
1969/12/31/18:00:07.577000,24,1730348249,226999763,RL_myo,-0.4041201392031614,-0.5737395119332,0.497322291833161,0.5100788405559311,74.25,-80.6875,142.1875,0.35595703125,0.57763671875,-0.20166015625
1969/12/31/18:00:07.599000,25,1730348249,249528230,RL_myo,-0.4028937433109837,-0.5614023104036402,0.5181893471762237,0.5039681318768054,51.3125,-69.875,104.8125,0.42431640625,0.88916015625,-0.31201171875
1969/12/31/18:00:07.614000,26,1730348249,263810358,RL_myo,-0.4010574571165602,-0.5533384425838891,0.5334412076089996,0.498407425782047,35.6875,-53.0,51.3125,0.29736328125,0.97607421875,-0.35986328125
1969/12/31/18:00:07.644000,27,1730348249,294516965,RL_myo,-0.3995309376952375,-0.5467458203290465,0.5428396211215158,0.4967586773451785,9.5,-44.25,33.625,0.11962890625,0.986328125,-0.369140625
1969/12/31/18:00:07.659000,28,1730348249,309502437,RL_myo,-0.3991266975023659,-0.5403683518869009,0.5515993218120325,0.4944068282259005,4.25,-35.875,39.9375,0.06494140625,1.00927734375,-0.41162109375
1969/12/31/18:00:07.674000,29,1730348249,323892979,RL_myo,-0.3991824506406669,-0.535539269406913,0.5596489128324579,0.4905549473698837,12.0625,-22.9375,39.6875,0.0537109375,1.02978515625,-0.38232421875
1969/12/31/18:00:07.697000,30,1730348249,346957984,RL_myo,-0.3978167813605329,-0.5336164650867045,0.5666966577067426,0.4856440824310771,26.875,-12.4375,31.5,-0.01708984375,1.025390625,-0.3447265625
1969/12/31/18:00:07.719000,31,1730348249,369443269,RL_myo,-0.3969728551539123,-0.5309450902496745,0.57257108766895,0.4823610815315758,17.375,-13.5,33.1875,-0.0869140625,1.095703125,-0.33935546875
1969/12/31/18:00:07.748000,32,1730348249,398004170,RL_myo,-0.3979549375258449,-0.5260695715544873,0.5776450197461037,0.4808418708326082,-4.75,-17.875,37.0,-0.04296875,1.09765625,-0.3857421875
1969/12/31/18:00:07.757000,33,1730348249,406958935,RL_myo,-0.4011316595492499,-0.519908623864959,0.5804567988912609,0.4815166862726768,-24.25,-16.125,31.125,0.03466796875,1.03466796875,-0.3173828125
1969/12/31/18:00:07.779000,34,1730348249,429483511,RL_myo,-0.4035687393716947,-0.5149590825890787,0.581610181106001,0.4834035716611951,-24.25,-14.4375,20.875,-0.009765625,0.978515625,-0.24365234375
1969/12/31/18:00:07.794000,35,1730348249,443787030,RL_myo,-0.4037546354614508,-0.512093936737955,0.583750466145626,0.4837120916148145,-7.75,-12.875,17.75,-0.0556640625,0.8994140625,-0.26708984375
1969/12/31/18:00:07.817000,36,1730348249,467007483,RL_myo,-0.3993599847824767,-0.5128873532213285,0.5904643883212105,0.4783408529329467,42.4375,-11.75,20.25,-0.05615234375,0.83251953125,-0.32080078125
1969/12/31/18:00:07.840000,37,1730348249,490126570,RL_myo,-0.3923919534723948,-0.5153157976617561,0.6005812446987658,0.4688073720052053,78.625,-11.875,26.125,-0.041015625,0.853515625,-0.3330078125
1969/12/31/18:00:07.860000,38,1730348249,510520576,RL_myo,-0.3857337511402059,-0.5173837038632161,0.6109485520432693,0.4585471000500581,79.3125,-10.8125,27.6875,0.01123046875,0.9267578125,-0.39111328125
1969/12/31/18:00:07.877000,39,1730348249,526941641,RL_myo,-0.3791476385053531,-0.5197105830446043,0.6208451028455332,0.4479947950143741,80.625,-8.0625,24.5,0.0439453125,1.111328125,-0.46630859375
1969/12/31/18:00:07.899000,40,1730348249,549535630,RL_myo,-0.3751794520232359,-0.5221506770878124,0.6251770175815853,0.4424395392413269,56.3125,-3.0,-0.3125,0.10302734375,1.3076171875,-0.3251953125
1969/12/31/18:00:07.922000,41,1730348249,571947748,RL_myo,-0.3728743279646886,-0.5249172074801641,0.6264215465545261,0.4393434952839792,23.5625,5.125,-5.5625,0.01025390625,1.05419921875,-0.42919921875
1969/12/31/18:00:07.937000,42,1730348249,587027358,RL_myo,-0.3716416563231167,-0.5252665617206015,0.6286597241136643,0.4367659209473186,13.9375,1.75,13.5625,-0.07861328125,0.921875,-0.41943359375
1969/12/31/18:00:07.959000,43,1730348249,609487690,RL_myo,-0.3698039857497752,-0.5253181887024782,0.6315170557109959,0.4341336442710267,21.0,-3.125,13.4375,-0.0537109375,0.87109375,-0.34423828125
1969/12/31/18:00:07.980000,44,1730348249,630466055,RL_myo,-0.3658970960853889,-0.5266598902620219,0.635544030281427,0.4299214586864854,29.0,-5.25,9.9375,-0.04052734375,0.83203125,-0.48779296875
1969/12/31/18:00:07.997000,45,1730348249,646923859,RL_myo,-0.359921431661185,-0.5278888354142088,0.6414743508155086,0.4246181787462886,50.375,-13.25,14.5,-0.05712890625,0.96240234375,-0.4560546875
1969/12/31/18:00:08.019000,46,1730348249,669459475,RL_myo,-0.3537534077913339,-0.5289821920854884,0.6468389606232844,0.4202805324449836,47.6875,-17.25,8.1875,-0.02001953125,0.96484375,-0.453125
1969/12/31/18:00:08.040000,47,1730348249,690529772,RL_myo,-0.3506436417362111,-0.5286204666801262,0.6502013429792615,0.4181478832958716,26.25,-12.375,8.6875,0.0078125,0.98095703125,-0.40869140625
1969/12/31/18:00:08.057000,48,1730348249,706938668,RL_myo,-0.3502251854300345,-0.5272298974807665,0.6517435569923159,0.4178531926549349,3.25,-6.75,11.0,-0.00390625,0.98095703125,-0.43505859375
1969/12/31/18:00:08.079000,49,1730348249,729273526,RL_myo,-0.3504073140442644,-0.5256414890348728,0.6530845253916789,0.4176078806289596,0.4375,-4.4375,12.1875,-0.0009765625,0.96044921875,-0.427734375
1969/12/31/18:00:08.101000,50,1730348249,750592018,RL_myo,-0.3506496675053381,-0.5245401640628156,0.6539967253820187,0.4173616059880769,0.3125,-2.5,8.6875,0.0087890625,0.92919921875,-0.40771484375
1969/12/31/18:00:08.117000,51,1730348249,767001946,RL_myo,-0.3504640395241402,-0.5236818981395198,0.6547854782331898,0.4173586036687688,-0.125,-2.5625,8.75,-0.037109375,0.91357421875,-0.42138671875
1969/12/31/18:00:08.139000,52,1730348249,789487881,RL_myo,-0.3496145677701889,-0.5225297337082031,0.6565038915740489,0.4168152729229434,4.4375,-5.875,13.0625,-0.04541015625,0.9189453125,-0.43505859375
1969/12/31/18:00:08.161000,53,1730348249,810612994,RL_myo,-0.3496082367110943,-0.5209943974451643,0.6580789120494097,0.4162584103298993,3.0,-5.1875,11.75,0.0234375,0.9404296875,-0.4208984375
1969/12/31/18:00:08.177000,54,1730348249,826959561,RL_myo,-0.3500447197924593,-0.5200315627954234,0.6592559753231654,0.4152317748470969,3.625,0.25,10.8125,0.01953125,0.9560546875,-0.42919921875
1969/12/31/18:00:08.199000,55,1730348249,849540232,RL_myo,-0.3499094821022211,-0.5195237243422477,0.6610011671318776,0.4132020222975818,9.5,2.0625,12.875,0.001953125,0.9326171875,-0.44970703125
1969/12/31/18:00:08.220000,56,1730348249,870621461,RL_myo,-0.3499757775904737,-0.5188601474183148,0.662964230238529,0.4108278616954096,10.3125,2.5625,15.0625,0.01171875,0.9365234375,-0.45654296875
1969/12/31/18:00:08.237000,57,1730348249,886959711,RL_myo,-0.35052400199328,-0.518126110555625,0.6643049343017342,0.4091176014906766,7.0,2.9375,12.3125,0.0302734375,0.94287109375,-0.4326171875
1969/12/31/18:00:08.259000,58,1730348249,909464302,RL_myo,-0.3511332630242733,-0.5176362252231639,0.6653404658834701,0.4075294276400265,4.6875,4.6875,11.5,0.01318359375,0.90576171875,-0.43310546875
1969/12/31/18:00:08.280000,59,1730348249,930604994,RL_myo,-0.351630900298962,-0.5168565290282261,0.6656023203888528,0.407662347352329,-3.1875,2.0625,10.4375,-0.041015625,0.9580078125,-0.451171875
1969/12/31/18:00:08.304000,60,1730348249,954484753,RL_myo,-0.3518675093085948,-0.5160520019434812,0.6647946073528559,0.4097898451861068,-13.9375,-3.0625,2.5,-0.03662109375,0.99755859375,-0.4775390625
1969/12/31/18:00:08.319000,61,1730348249,969490458,RL_myo,-0.3532263354242953,-0.5144884709333654,0.6637261398658696,0.4123110239832581,-19.9375,-2.3125,4.125,-0.0029296875,0.99267578125,-0.4580078125
1969/12/31/18:00:08.341000,62,1730348249,990607123,RL_myo,-0.3553461104679662,-0.5129386314621759,0.6624745247370843,0.4144280470761749,-20.875,0.875,3.625,0.03857421875,0.97216796875,-0.43701171875
1969/12/31/18:00:08.357000,63,1730348250,7003665,RL_myo,-0.3566274069507718,-0.5126938590426977,0.6608257633161058,0.4162585855560951,-16.625,3.0,-3.4375,0.02734375,1.01953125,-0.46923828125
1969/12/31/18:00:08.379000,64,1730348250,29565978,RL_myo,-0.3568713095783866,-0.513975251917153,0.6583839261881402,0.4183334968103748,-13.0,3.75,-13.5625,0.013671875,1.0908203125,-0.48681640625
1969/12/31/18:00:08.400000,65,1730348250,50565718,RL_myo,-0.3579117102436866,-0.5156882741897865,0.6538114324915366,0.4224871859322644,-22.5,5.0,-25.8125,0.0390625,1.18896484375,-0.44384765625
1969/12/31/18:00:08.416000,66,1730348250,66391985,RL_myo,-0.3592475965952638,-0.5178756128288844,0.6475123602241172,0.4283383678059057,-33.0625,6.1875,-35.0625,0.01806640625,1.1669921875,-0.4150390625
1969/12/31/18:00:08.439000,67,1730348250,89534286,RL_myo,-0.3611553369434977,-0.5201564612865451,0.6402160434680323,0.4348879120707151,-36.875,7.9375,-39.25,0.01806640625,1.1591796875,-0.3525390625
1969/12/31/18:00:08.461000,68,1730348250,110599252,RL_myo,-0.3625999715798575,-0.5234232210518193,0.6324900699347018,0.4410280078498654,-31.5625,10.75,-44.875,0.00830078125,1.10107421875,-0.28955078125
1969/12/31/18:00:08.476000,69,1730348250,126381431,RL_myo,-0.3634007982412807,-0.5275842290892896,0.6250566971429217,0.4459807915265432,-21.5,13.5,-47.1875,0.005859375,1.03173828125,-0.23583984375
1969/12/31/18:00:08.499000,70,1730348250,149474440,RL_myo,-0.3623614752154815,-0.5324644618123398,0.619621643319449,0.4486031401101211,-3.3125,12.75,-40.3125,-0.05908203125,0.91796875,-0.224609375
1969/12/31/18:00:08.521000,71,1730348250,170629563,RL_myo,-0.3601233358584265,-0.5373772625250147,0.616482320706798,0.4488723748987913,14.4375,11.3125,-31.25,-0.06298828125,0.80908203125,-0.19287109375
1969/12/31/18:00:08.538000,72,1730348250,187794680,RL_myo,-0.3573065306503053,-0.5427348258528382,0.615429065347972,0.4461143547186678,33.9375,13.6875,-26.875,0.00830078125,0.75634765625,-0.1708984375
1969/12/31/18:00:08.559000,73,1730348250,209488837,RL_myo,-0.3538705299715762,-0.5489936904267555,0.6150926528205495,0.4416362805923294,43.875,18.0625,-24.6875,-0.01123046875,0.78857421875,-0.220703125
1969/12/31/18:00:08.582000,74,1730348250,232014760,RL_myo,-0.350043173817591,-0.5550641016036919,0.6150017470594678,0.4372030085536886,42.0,16.8125,-20.5625,-0.07470703125,0.81787109375,-0.29296875
1969/12/31/18:00:08.603000,75,1730348250,253022754,RL_myo,-0.3468609904131876,-0.5600556832714076,0.6146208293965862,0.4338966709215821,28.0,13.3125,-17.25,-0.09521484375,0.79443359375,-0.3759765625
1969/12/31/18:00:08.619000,76,1730348250,269486986,RL_myo,-0.3457660388243855,-0.5632965176187563,0.6145052919477342,0.4307274379494596,15.6875,14.0625,-9.0625,-0.03759765625,0.76611328125,-0.404296875
1969/12/31/18:00:08.642000,77,1730348250,292032496,RL_myo,-0.3468055994516669,-0.5658021659480733,0.6139594376776343,0.4273728981627194,6.625,20.375,-3.75,-0.0126953125,0.7529296875,-0.4052734375
1969/12/31/18:00:08.663000,78,1730348250,313154326,RL_myo,-0.3477208610190915,-0.568792470394403,0.6129213421719707,0.4241376624928325,5.9375,23.875,-2.5,-0.08740234375,0.76025390625,-0.421875
1969/12/31/18:00:08.679000,79,1730348250,329467418,RL_myo,-0.3484515542085316,-0.5717803748161717,0.6121248269674836,0.4206565268182168,7.4375,23.875,-1.125,-0.10302734375,0.7978515625,-0.4501953125
1969/12/31/18:00:08.702000,80,1730348250,351992079,RL_myo,-0.3496667921748354,-0.5742738431790935,0.6115659377887679,0.4170489074761128,6.75,24.0625,2.5,-0.09228515625,0.81689453125,-0.451171875
1969/12/31/18:00:08.723000,81,1730348250,373096312,RL_myo,-0.3508972015898476,-0.5761818721530982,0.6113387321488806,0.4137034671031462,5.125,21.8125,5.875,-0.09814453125,0.8466796875,-0.47705078125
1969/12/31/18:00:08.739000,82,1730348250,389508729,RL_myo,-0.3520472153591709,-0.5777529369954771,0.6113829674502107,0.4104572682542344,4.3125,19.1875,7.1875,-0.0927734375,0.861328125,-0.4970703125
1969/12/31/18:00:08.762000,83,1730348250,411965536,RL_myo,-0.3532051222765648,-0.5789707603102634,0.612295453028944,0.4063659416135077,8.25,18.875,10.5625,-0.05029296875,0.8251953125,-0.48388671875
1969/12/31/18:00:08.776000,84,1730348250,426431793,RL_myo,-0.3537579114136214,-0.5805023284083771,0.6135832097034397,0.401731292775096,14.25,19.125,11.9375,-0.068359375,0.87109375,-0.5126953125
1969/12/31/18:00:08.799000,85,1730348250,449531412,RL_myo,-0.3534021898853888,-0.5821675452723383,0.614944225059636,0.3975316861353259,16.9375,15.25,9.875,-0.08447265625,0.90966796875,-0.52392578125
1969/12/31/18:00:08.822000,86,1730348250,471980515,RL_myo,-0.3535046039748419,-0.5831727367022815,0.616496893085269,0.3935424182371859,12.0,13.4375,11.4375,-0.04541015625,0.884765625,-0.54833984375
1969/12/31/18:00:08.843000,87,1730348250,493098392,RL_myo,-0.3541298676721124,-0.5834414693343196,0.6186591414554518,0.3891644323125454,12.125,12.625,16.4375,-0.01416015625,0.85595703125,-0.53564453125
1969/12/31/18:00:08.859000,88,1730348250,509545829,RL_myo,-0.3540111504612338,-0.5840573618557838,0.6212285326542134,0.3842241710609426,17.4375,12.625,16.5,-0.01513671875,0.8447265625,-0.546875
1969/12/31/18:00:08.882000,89,1730348250,531922627,RL_myo,-0.3530980399401208,-0.5846717587876262,0.6241625853807564,0.379343875233855,21.875,9.125,17.25,-0.02978515625,0.85205078125,-0.5458984375
1969/12/31/18:00:08.903000,90,1730348250,552997677,RL_myo,-0.3527888951488996,-0.5845431226368533,0.6267801322290745,0.37549433961177,16.125,6.5,17.0,-0.009765625,0.919921875,-0.55322265625
1969/12/31/18:00:08.919000,91,1730348250,569553714,RL_myo,-0.3533941563266028,-0.583680192910415,0.6288462854288409,0.3728033690574939,6.625,5.25,16.625,0.01025390625,0.927734375,-0.55810546875
1969/12/31/18:00:08.942000,92,1730348250,592237097,RL_myo,-0.3546170287285885,-0.5822189048265071,0.6303760193991157,0.371340792217682,-2.0625,3.5625,17.0625,-0.00439453125,0.9443359375,-0.5615234375
1969/12/31/18:00:08.971000,93,1730348250,620717656,RL_myo,-0.3563177959593237,-0.5805575325736703,0.6312769721835021,0.3707829068949797,-8.5,3.0,14.5625,0.00927734375,0.919921875,-0.54345703125
1969/12/31/18:00:08.979000,94,1730348250,629474484,RL_myo,-0.3585805057087541,-0.578489537550225,0.6317120398443584,0.3710926765462511,-13.75,2.5,13.875,0.01220703125,0.939453125,-0.5302734375
1969/12/31/18:00:09.002000,95,1730348250,652006933,RL_myo,-0.3607805692542306,-0.5764798640849615,0.6319000564183808,0.3717669509943357,-14.75,1.875,13.1875,-0.00146484375,0.92431640625,-0.4990234375
1969/12/31/18:00:09.016000,96,1730348250,666355020,RL_myo,-0.3626029182037337,-0.5745129219073801,0.6326172777616057,0.3718190502772505,-10.125,1.625,14.75,0.0078125,0.86962890625,-0.47607421875
1969/12/31/18:00:09.039000,97,1730348250,689493653,RL_myo,-0.3633310701147326,-0.5731634603472963,0.6343187992108881,0.3702888631590934,0.625,1.9375,15.9375,0.0205078125,0.84912109375,-0.4931640625
1969/12/31/18:00:09.062000,98,1730348250,711961647,RL_myo,-0.3630397567634099,-0.5726360117609803,0.6367233931667605,0.3672512132557897,12.9375,3.0625,15.875,0.029296875,0.845703125,-0.4970703125
1969/12/31/18:00:09.083000,99,1730348250,733168879,RL_myo,-0.3637689566689885,-0.5722647210953753,0.638915006444794,0.3632806761902382,18.625,8.75,15.4375,0.0986328125,0.93310546875,-0.45703125
1969/12/31/18:00:09.099000,100,1730348250,749533690,RL_myo,-0.36540970913378,-0.573229996356182,0.6396348340942065,0.3588180524465496,21.8125,17.5,5.625,0.16552734375,1.06787109375,-0.455078125
1969/12/31/18:00:09.122000,101,1730348250,772021243,RL_myo,-0.3657828234010113,-0.5748277374921951,0.6392807095448344,0.3565055016661617,19.375,12.3125,-1.3125,0.068359375,1.11181640625,-0.45703125
1969/12/31/18:00:09.143000,102,1730348250,793036825,RL_myo,-0.3651606638335203,-0.5760298086680202,0.6397482999002106,0.3543578161820858,16.1875,6.625,1.375,0.05322265625,1.0146484375,-0.5107421875
1969/12/31/18:00:09.159000,103,1730348250,809487321,RL_myo,-0.3651693322399645,-0.5769590001110454,0.6399465900946061,0.3524741590649833,15.25,6.9375,0.75,0.0791015625,1.029296875,-0.4736328125
1969/12/31/18:00:09.182000,104,1730348250,832001086,RL_myo,-0.3628473082648284,-0.5781753660542842,0.6406742127596138,0.3515560127174788,15.0625,-0.1875,3.1875,-0.06591796875,0.94580078125,-0.5341796875
1969/12/31/18:00:09.187000,105,1730348250,837424308,RL_myo,-0.3599878841620336,-0.5784342452023724,0.6415450407641802,0.3524805071271183,7.6875,-10.5625,1.125,-0.0634765625,0.88916015625,-0.51123046875
1969/12/31/18:00:09.210000,106,1730348250,859915027,RL_myo,-0.3592515492168775,-0.5773293245060218,0.6421484113677827,0.3539415110276372,-2.8125,-9.625,4.5,0.0048828125,0.8369140625,-0.45654296875
1969/12/31/18:00:09.225000,107,1730348250,874911202,RL_myo,-0.3603483615560389,-0.5758005492750121,0.6422672440132449,0.3550993847447551,-11.375,-2.8125,6.5625,0.044921875,0.86376953125,-0.49462890625
1969/12/31/18:00:09.247000,108,1730348250,897503827,RL_myo,-0.360708718055713,-0.5753639737920824,0.642256825736086,0.355459826388574,-8.125,0.25,2.8125,0.03125,0.85888671875,-0.55224609375
1969/12/31/18:00:09.270000,109,1730348250,919934963,RL_myo,-0.3623649282324072,-0.5743395611701114,0.6413560158103646,0.3570548812800374,-17.625,1.125,1.25,0.05126953125,0.9462890625,-0.5595703125
1969/12/31/18:00:09.285000,110,1730348250,934919562,RL_myo,-0.3650496709534949,-0.5728734679099654,0.6399508108923916,0.3591903216119909,-26.1875,3.0,2.125,0.05517578125,0.96484375,-0.57958984375
1969/12/31/18:00:09.307000,111,1730348250,957393287,RL_myo,-0.3690173552665143,-0.5705547861447859,0.6378153097146997,0.3626086846904336,-42.625,3.0,1.625,0.078125,0.97265625,-0.63330078125
1969/12/31/18:00:09.330000,112,1730348250,979873484,RL_myo,-0.373652921237695,-0.5680476540279692,0.6349414145109019,0.3668170625022128,-53.1875,2.5625,-3.75,0.1279296875,0.931640625,-0.65625
1969/12/31/18:00:09.345000,113,1730348250,994885649,RL_myo,-0.3818339681336075,-0.5648164228114457,0.6290861108620673,0.3734111600130133,-82.3125,11.3125,-11.25,0.17578125,1.04248046875,-0.69091796875
1969/12/31/18:00:09.367000,114,1730348251,17380598,RL_myo,-0.3923950538832105,-0.5618896976277548,0.6186523979095071,0.3841553070681174,-106.0625,19.0625,-26.5,0.22998046875,1.00048828125,-0.70556640625
1969/12/31/18:00:09.390000,115,1730348251,39904858,RL_myo,-0.40630563540115,-0.5581590860362802,0.6046062226654337,0.3972725523247837,-136.0625,28.875,-35.1875,0.30615234375,0.9150390625,-0.685546875
1969/12/31/18:00:09.405000,116,1730348251,54942064,RL_myo,-0.4254191516639095,-0.5540214691037743,0.585271771205915,0.4117471444942228,-170.8125,53.625,-44.625,0.44921875,0.8232421875,-0.59033203125
1969/12/31/18:00:09.427000,117,1730348251,77308327,RL_myo,-0.4478679364315676,-0.552480316241285,0.5587668244795586,0.4265670492941163,-191.125,86.625,-71.9375,0.62646484375,0.8193359375,-0.41015625
1969/12/31/18:00:09.450000,118,1730348251,99871520,RL_myo,-0.4699166405642979,-0.555672307533104,0.5241166635310593,0.4423893766476206,-198.75,114.625,-119.8125,0.76220703125,0.74365234375,-0.19677734375
1969/12/31/18:00:09.465000,119,1730348251,114855276,RL_myo,-0.4898466699669553,-0.5627194489279004,0.4831941298440549,0.458170813785439,-198.125,135.875,-157.125,0.7734375,0.53271484375,-0.17138671875
1969/12/31/18:00:09.487000,120,1730348251,137380787,RL_myo,-0.50475192531531,-0.573537344883672,0.4422530170295932,0.4697793916749626,-158.6875,146.375,-167.3125,0.65869140625,0.3681640625,-0.068359375
1969/12/31/18:00:09.510000,121,1730348251,159848214,RL_myo,-0.5116154990507309,-0.5891329989069023,0.4051662709017838,0.4764579558088768,-93.9375,144.4375,-170.8125,0.4306640625,0.35791015625,0.0244140625
1969/12/31/18:00:09.525000,122,1730348251,174785282,RL_myo,-0.5111452826930669,-0.6072711119756437,0.3694283458078966,0.4831925018604192,-56.9375,130.875,-186.875,0.09912109375,0.36962890625,0.0966796875
1969/12/31/18:00:09.547000,123,1730348251,197456052,RL_myo,-0.506282830146407,-0.6227370362849656,0.3357518804864839,0.4930993351118531,-50.125,97.0,-191.6875,-0.1708984375,0.43408203125,0.11181640625
1969/12/31/18:00:09.570000,124,1730348251,219973184,RL_myo,-0.4989607489673388,-0.6348245565760601,0.3068837487226641,0.5038435452875085,-39.3125,66.125,-176.9375,-0.255859375,0.46923828125,0.11474609375
1969/12/31/18:00:09.588000,125,1730348251,237753069,RL_myo,-0.4921228285058438,-0.6432447587279038,0.2830789629926954,0.5137291141676408,-34.0625,45.5,-148.25,-0.28515625,0.4814453125,0.1806640625
1969/12/31/18:00:09.607000,126,1730348251,257329454,RL_myo,-0.4903499066986567,-0.6449498959527888,0.2637293934335195,0.5234915546121955,-58.0625,22.375,-104.75,-0.3662109375,0.51123046875,0.251953125
1969/12/31/18:00:09.630000,127,1730348251,279906451,RL_myo,-0.4934059735384074,-0.6389741634059362,0.2475574750954701,0.535703145688595,-81.0625,-7.125,-63.8125,-0.47705078125,0.57666015625,0.25830078125
1969/12/31/18:00:09.645000,128,1730348251,294910314,RL_myo,-0.5024248861508389,-0.6255897817111393,0.2358320894177407,0.548260781376699,-122.9375,-40.625,-27.9375,-0.62451171875,0.71240234375,0.21826171875
1969/12/31/18:00:09.667000,129,1730348251,317365347,RL_myo,-0.5189136251850722,-0.6030188916523774,0.226986564580485,0.5617597043287937,-169.5,-71.9375,17.0625,-0.76611328125,0.84912109375,0.21435546875
1969/12/31/18:00:09.698000,130,1730348251,348616287,RL_myo,-0.5402679604974403,-0.5712119116917695,0.2244199379517722,0.5757283858305868,-194.6875,-117.4375,68.5625,-0.9443359375,0.7578125,0.22607421875
1969/12/31/18:00:09.705000,131,1730348251,354866433,RL_myo,-0.5643256077148279,-0.5299631464187595,0.2284523847800779,0.5903263333136292,-211.875,-169.3125,111.5625,-1.029296875,0.69189453125,0.31494140625
1969/12/31/18:00:09.727000,132,1730348251,377349736,RL_myo,-0.5869076421675659,-0.4806465975529931,0.2379124364776593,0.6065607474897328,-217.875,-221.375,126.25,-0.83740234375,0.7470703125,0.3876953125
1969/12/31/18:00:09.750000,133,1730348251,399894174,RL_myo,-0.6033831048616615,-0.4296190243901714,0.2493853294016537,0.6238295280994378,-202.5625,-244.8125,106.0625,-0.599609375,0.78515625,0.37939453125
1969/12/31/18:00:09.765000,134,1730348251,414916993,RL_myo,-0.6109749913006296,-0.3825765479992354,0.266790378319186,0.6396621287543055,-142.375,-262.75,91.25,-0.765625,0.7490234375,0.5
1969/12/31/18:00:09.787000,135,1730348251,437400159,RL_myo,-0.6118919435988261,-0.3391804020527358,0.2921822178561178,0.6520540282759362,-79.875,-280.875,91.1875,-0.74560546875,0.759765625,0.6220703125
1969/12/31/18:00:09.810000,136,1730348251,459817501,RL_myo,-0.6096666555652093,-0.2988825320155,0.3189626531168068,0.6612402188801159,-51.8125,-271.375,85.5625,-0.48095703125,0.8330078125,0.71044921875
1969/12/31/18:00:09.825000,137,1730348251,474947350,RL_myo,-0.609397415056963,-0.260507628952636,0.3419315223506717,0.666223235711814,-54.9375,-238.8125,96.0,-0.2763671875,0.91015625,0.794921875
1969/12/31/18:00:09.847000,138,1730348251,497291521,RL_myo,-0.6112156339150739,-0.2252232563557642,0.3604182462820562,0.6676740382860988,-58.0625,-201.4375,102.5,-0.109375,0.96875,0.84814453125
1969/12/31/18:00:09.870000,139,1730348251,519938046,RL_myo,-0.613337946218848,-0.1932969724027357,0.3747532082579089,0.6678419551723191,-59.5625,-171.0,95.125,-0.0068359375,0.89599609375,0.82373046875
1969/12/31/18:00:09.888000,140,1730348251,537853067,RL_myo,-0.6152500008052052,-0.163334226404239,0.3839819201453914,0.6688402290499443,-74.5,-148.3125,82.875,0.01416015625,1.06103515625,0.96728515625
1969/12/31/18:00:09.907000,141,1730348251,557426197,RL_myo,-0.6165212591053757,-0.1362926414792895,0.3914827597170457,0.6693781455904024,-71.375,-131.125,74.1875,0.01611328125,0.9150390625,0.6728515625
1969/12/31/18:00:09.930000,142,1730348251,580002506,RL_myo,-0.6192808332190362,-0.1137728635048574,0.3921013278729635,0.6706739400168312,-98.4375,-95.25,76.625,0.1494140625,1.140625,0.798828125
1969/12/31/18:00:09.962000,143,1730348251,611839789,RL_myo,-0.626366021485941,-0.0812408082827701,0.3839253824933316,0.6735479484600817,-162.3125,-81.0,85.875,0.48291015625,0.9697265625,0.708984375
1969/12/31/18:00:09.967000,144,1730348251,617479446,RL_myo,-0.6356767737779515,-0.0471188160688025,0.3693822213062086,0.676203838375989,-188.625,-59.6875,94.125,0.49951171875,0.60400390625,0.79638671875
1969/12/31/18:00:09.999000,145,1730348251,648707390,RL_myo,-0.6436245006522727,-0.0216067399934475,0.3630420606808647,0.6734100631291157,-110.5,-57.875,91.4375,0.47998046875,0.30126953125,0.80712890625
1969/12/31/18:00:10.005000,146,1730348251,654943256,RL_myo,-0.6530769589190316,-0.0057373116017185,0.3641972162495198,0.6639412298244136,-27.75,-45.8125,100.5625,0.439453125,-0.0419921875,0.85107421875
1969/12/31/18:00:10.027000,147,1730348251,677404006,RL_myo,-0.6671303711533451,-0.0034790879373962,0.3774505228922494,0.6422274259172458,93.25,-31.5625,137.5625,0.28271484375,0.037109375,0.80517578125
1969/12/31/18:00:10.050000,148,1730348251,699954562,RL_myo,-0.6742710578133851,-0.0098879253522013,0.3986909160529584,0.6215354559349778,151.8125,-46.4375,91.8125,0.2314453125,0.224609375,0.79736328125
1969/12/31/18:00:10.065000,149,1730348251,714933257,RL_myo,-0.6853707308798576,-0.0175172677676123,0.4191326751226273,0.5952208894416574,158.1875,-22.8125,126.625,0.9833984375,1.064453125,0.93017578125
1969/12/31/18:00:10.087000,150,1730348251,737307192,RL_myo,-0.6901382729483202,-0.0238652219618637,0.4248741945691392,0.5853388199853534,63.125,14.5,41.75,0.72412109375,0.72607421875,0.75048828125
1969/12/31/18:00:10.110000,151,1730348251,759989980,RL_myo,-0.6922253878951042,-0.027894101249278,0.4270788324752706,0.5810762448427292,39.8125,10.8125,8.0,0.6025390625,0.41650390625,0.6708984375
1969/12/31/18:00:10.126000,152,1730348251,776270491,RL_myo,-0.6930654472266213,-0.0306401457074208,0.4292672206380297,0.5783174911908618,32.1875,6.8125,-2.4375,0.556640625,0.29150390625,0.5302734375
1969/12/31/18:00:10.147000,153,1730348251,797426995,RL_myo,-0.6938403142877468,-0.0323482905148228,0.4310257124824127,0.5759826746950621,25.25,3.8125,-0.875,0.50732421875,0.2626953125,0.49462890625
1969/12/31/18:00:10.170000,154,1730348251,819892347,RL_myo,-0.6951952247261912,-0.0316774645858554,0.4323760291448936,0.5733682125617068,14.1875,-0.5,8.625,0.6083984375,0.375,0.59033203125
1969/12/31/18:00:10.186000,155,1730348251,836398176,RL_myo,-0.6960360203818282,-0.0298458097129703,0.4338323424126653,0.5713427908448171,3.1875,-2.3125,8.375,0.70361328125,0.48681640625,0.5927734375
1969/12/31/18:00:10.186000,1,1730348257,470275465,RL_myo,-0.6737756553070198,-0.1183486724921017,0.4588071021779932,0.567023809928636,50.0625,132.4375,-117.5,0.3701171875,1.32666015625,0.60595703125
1969/12/31/18:00:10.207000,2,1730348257,491315533,RL_myo,-0.6680838803119056,-0.1479476818816059,0.4385330422109484,0.5826355491921661,5.375,147.5,-163.8125,0.181640625,1.2158203125,0.4873046875
1969/12/31/18:00:10.228000,3,1730348257,512397146,RL_myo,-0.6615408436989407,-0.1821846497316485,0.4149049409969,0.5975168244130113,18.25,174.9375,-182.8125,0.22705078125,0.923828125,0.57373046875
1969/12/31/18:00:10.246000,4,1730348257,530434544,RL_myo,-0.6537662206410082,-0.2251040819460403,0.393993180304146,0.6055470707664496,81.25,198.8125,-180.8125,0.1875,0.6923828125,0.60595703125
1969/12/31/18:00:10.267000,5,1730348257,551353240,RL_myo,-0.6397601072102266,-0.2785599245666356,0.3779235435838316,0.6085106152343026,156.625,208.6875,-199.1875,-0.025390625,0.7177734375,0.5234375
1969/12/31/18:00:10.288000,6,1730348257,572434837,RL_myo,-0.6193655044479809,-0.3387345831381843,0.363269952943869,0.6080133184184849,201.0625,218.375,-219.3125,-0.2490234375,0.8876953125,0.3564453125
1969/12/31/18:00:10.306000,7,1730348257,590256280,RL_myo,-0.594171283061041,-0.398982812261944,0.3467372428422983,0.6062561227165197,206.25,216.1875,-232.875,-0.5029296875,0.8974609375,0.265625
1969/12/31/18:00:10.327000,8,1730348257,611293947,RL_myo,-0.5671898248653797,-0.4540326167194189,0.3276310104247669,0.6039933828546,187.0625,204.6875,-231.875,-0.66015625,0.89599609375,0.3154296875
1969/12/31/18:00:10.348000,9,1730348257,632301438,RL_myo,-0.5413231682583289,-0.5029929224959847,0.3067030015219419,0.5999171745192372,163.75,197.875,-216.125,-0.67578125,0.7763671875,0.3662109375
1969/12/31/18:00:10.366000,10,1730348257,650252934,RL_myo,-0.5186135482105433,-0.5465675325674255,0.2863757524071871,0.5918554286215886,148.5625,195.625,-181.8125,-0.71240234375,0.69580078125,0.40087890625
1969/12/31/18:00:10.387000,11,1730348257,670619219,RL_myo,-0.4983573762542452,-0.5847840810645344,0.2681303066607347,0.5811829683641057,137.25,184.3125,-150.0,-0.74755859375,0.60546875,0.38232421875
1969/12/31/18:00:10.417000,12,1730348257,700591771,RL_myo,-0.4805345800455445,-0.6168884796799591,0.2541529266238597,0.569158511231386,128.25,161.125,-113.5625,-0.7724609375,0.505859375,0.37451171875
1969/12/31/18:00:10.425000,13,1730348257,709419519,RL_myo,-0.4659233000545877,-0.6415752855873496,0.2455954099318393,0.5576553828397653,112.1875,124.5,-73.5,-0.8056640625,0.3720703125,0.25537109375
1969/12/31/18:00:10.446000,14,1730348257,730580854,RL_myo,-0.4519545205263759,-0.6581263463654168,0.240655864204659,0.5519887486347796,96.625,70.625,-34.0625,-0.826171875,0.357421875,0.1474609375
1969/12/31/18:00:10.469000,15,1730348257,753058748,RL_myo,-0.4389112981049492,-0.6668814967451919,0.2449382616180171,0.5501192504269097,92.4375,8.3125,-2.4375,-0.744140625,0.40673828125,0.06689453125
1969/12/31/18:00:10.485000,16,1730348257,769410281,RL_myo,-0.4283429824638118,-0.6685153443895883,0.2592152531381888,0.5499245186661362,91.6875,-43.1875,43.6875,-0.6708984375,0.4482421875,0.01904296875
1969/12/31/18:00:10.508000,17,1730348257,791982175,RL_myo,-0.424306977678085,-0.6608739865216203,0.2803282434515886,0.5519286535015712,70.3125,-83.875,77.5,-0.37841796875,0.58935546875,0.14453125
1969/12/31/18:00:10.522000,18,1730348257,806294847,RL_myo,-0.4205358282327996,-0.6525324440692105,0.3035914672902678,0.5524339305275863,68.5625,-90.125,76.5625,-0.14990234375,0.64404296875,0.0087890625
1969/12/31/18:00:10.545000,19,1730348257,829490656,RL_myo,-0.41478480020656,-0.6425624450521872,0.3258587475430877,0.5557725707299788,62.5,-107.75,72.5,-0.14208984375,0.537109375,-0.01904296875
1969/12/31/18:00:10.568000,20,1730348257,852053872,RL_myo,-0.4102112917716302,-0.6296905069495475,0.3541818369514611,0.5565714580665818,74.875,-120.375,108.0,0.048828125,0.4423828125,-0.03662109375
1969/12/31/18:00:10.582000,21,1730348257,866370332,RL_myo,-0.4112972661340877,-0.6134365368621035,0.3839547560839214,0.5541740876239081,57.3125,-111.3125,142.5625,0.20458984375,0.5673828125,-0.0634765625
1969/12/31/18:00:10.605000,22,1730348257,889437456,RL_myo,-0.413944792211011,-0.5959535463208953,0.4130292552185066,0.5503598040941737,49.3125,-105.8125,152.5,0.12548828125,0.6630859375,-0.10107421875
1969/12/31/18:00:10.635000,23,1730348257,919414361,RL_myo,-0.4130866107550989,-0.5791025063304341,0.4432380270838547,0.5454720804252835,66.875,-111.125,146.4375,0.14404296875,0.63916015625,-0.21728515625
1969/12/31/18:00:10.649000,24,1730348257,933151576,RL_myo,-0.4112669589138134,-0.5625165172676914,0.4715714640202022,0.5404211419149457,66.0,-107.9375,134.8125,0.2919921875,0.73681640625,-0.20849609375
1969/12/31/18:00:10.665000,25,1730348257,949417628,RL_myo,-0.4113157716369286,-0.544860646001315,0.4937132032602931,0.5386960974131966,29.75,-102.0625,116.5625,0.220703125,0.8857421875,-0.17919921875
1969/12/31/18:00:10.688000,26,1730348257,971961650,RL_myo,-0.4116898923884511,-0.5268043678583725,0.5117894362753392,0.5394999197659778,5.6875,-101.0625,101.6875,0.1806640625,0.8681640625,-0.3046875
1969/12/31/18:00:10.709000,27,1730348257,993153588,RL_myo,-0.4098474137306719,-0.5115310758714462,0.5331983628222114,0.5348462973226922,30.1875,-93.75,90.625,0.25390625,0.7734375,-0.35546875
1969/12/31/18:00:10.725000,28,1730348258,9516107,RL_myo,-0.4068611230422108,-0.4990854190093246,0.5503550474754898,0.5314951484325791,30.1875,-81.0625,64.6875,0.2431640625,0.8837890625,-0.2705078125
1969/12/31/18:00:10.748000,29,1730348258,32107307,RL_myo,-0.4027700553218656,-0.4911487551409385,0.5642076665245228,0.5274645882848255,36.4375,-60.75,43.8125,0.1865234375,1.04052734375,-0.29736328125
1969/12/31/18:00:10.769000,30,1730348258,53036726,RL_myo,-0.3998349849656027,-0.4860762967892016,0.5769562071256057,0.5205606146804497,50.3125,-37.0625,45.5,0.14453125,1.1005859375,-0.2568359375
1969/12/31/18:00:10.785000,31,1730348258,69474277,RL_myo,-0.4001563529212834,-0.4803585261577944,0.5861960972324597,0.5152714965468996,25.75,-23.375,51.75,0.05615234375,1.1220703125,-0.24755859375
1969/12/31/18:00:10.808000,32,1730348258,92034415,RL_myo,-0.4035761222293906,-0.4734633968743774,0.588273845439635,0.5166165000831159,-33.25,-17.9375,33.25,0.01513671875,1.2333984375,-0.30810546875
1969/12/31/18:00:10.829000,33,1730348258,113119764,RL_myo,-0.4059316719564726,-0.4687958460829448,0.5880546773869514,0.5192702849204133,-34.875,-13.125,13.6875,0.0244140625,1.134765625,-0.2666015625
1969/12/31/18:00:10.845000,34,1730348258,129511339,RL_myo,-0.4106353460536918,-0.4620868318924644,0.5864126642217407,0.5234257918781898,-47.375,-11.75,20.25,0.02880859375,1.0185546875,-0.12060546875
1969/12/31/18:00:10.868000,35,1730348258,152078936,RL_myo,-0.4172374526847296,-0.4540417511003077,0.5826431719321868,0.529420372233374,-68.625,-9.25,20.4375,0.03515625,1.0224609375,-0.1025390625
1969/12/31/18:00:10.890000,36,1730348258,174373835,RL_myo,-0.4202868787917562,-0.4499498795313428,0.5812361235454392,0.5320419289032441,-34.875,-5.875,10.1875,0.04736328125,0.96630859375,-0.13720703125
1969/12/31/18:00:10.905000,37,1730348258,189431390,RL_myo,-0.418532963634916,-0.4519203824927691,0.584066199361603,0.5286443048041428,22.625,1.9375,1.0,0.04931640625,0.90771484375,-0.17529296875
1969/12/31/18:00:10.928000,38,1730348258,211978888,RL_myo,-0.4122314276521603,-0.4589233201830906,0.5896606192696952,0.521301247198268,70.875,6.0625,-9.25,-0.00927734375,1.2080078125,-0.19775390625
1969/12/31/18:00:10.949000,39,1730348258,233062614,RL_myo,-0.4078498759216859,-0.4646754123603404,0.5919987947567242,0.5169842036900149,44.625,8.3125,-14.9375,-0.0126953125,1.21240234375,-0.19140625
1969/12/31/18:00:10.971000,40,1730348258,255584609,RL_myo,-0.4075345628734,-0.4663728613023288,0.5925944392598235,0.5150182179909765,0.5,7.875,1.25,-0.0244140625,0.9697265625,-0.3125
1969/12/31/18:00:10.988000,41,1730348258,271957306,RL_myo,-0.4099164607493377,-0.465459042536398,0.5919862645634048,0.5146539006906515,-9.9375,7.5,6.3125,0.04931640625,0.90185546875,-0.14111328125
1969/12/31/18:00:11.009000,42,1730348258,293156444,RL_myo,-0.4108873577928819,-0.4649643332837454,0.5923442969964229,0.5139143720463556,-4.5625,2.6875,5.875,0.02587890625,0.7880859375,-0.16796875
1969/12/31/18:00:11.025000,43,1730348258,309524335,RL_myo,-0.4093536684648047,-0.4656268281971067,0.5948964077123082,0.511585276438347,19.125,-2.9375,6.125,-0.001953125,0.7568359375,-0.13525390625
1969/12/31/18:00:11.048000,44,1730348258,331890291,RL_myo,-0.4036144198223507,-0.4696526478955071,0.603193907622001,0.5026717619320854,74.1875,-3.0,14.625,-0.01904296875,0.8056640625,-0.21142578125
1969/12/31/18:00:11.069000,45,1730348258,352989009,RL_myo,-0.3964223614726573,-0.4752185537222648,0.6116928262785176,0.4927966353395282,85.625,-1.1875,8.3125,-0.01953125,1.001953125,-0.279296875
1969/12/31/18:00:11.085000,46,1730348258,369363214,RL_myo,-0.3862204945124482,-0.4815549465396992,0.6200401396573896,0.4842404240615936,85.6875,-11.6875,-0.5,-0.107421875,1.17236328125,-0.42626953125
1969/12/31/18:00:11.108000,47,1730348258,392057449,RL_myo,-0.3800516023509117,-0.4834412626018262,0.6254036886606379,0.4803285868799863,48.8125,-16.9375,3.375,-0.04296875,1.146484375,-0.31298828125
1969/12/31/18:00:11.129000,48,1730348258,412948534,RL_myo,-0.3800648971407755,-0.4814440193747289,0.6262190211441074,0.4812609143977862,-8.3125,-9.9375,7.3125,0.013671875,1.07763671875,-0.31396484375
1969/12/31/18:00:11.145000,49,1730348258,429441439,RL_myo,-0.3823158265229968,-0.4785661551351881,0.6243759427411011,0.4847305706011559,-30.6875,-5.125,4.875,0.0009765625,0.97705078125,-0.24853515625
1969/12/31/18:00:11.168000,50,1730348258,452008032,RL_myo,-0.3844038289927335,-0.4755303638746247,0.6226878157167144,0.4882258221836893,-31.5625,-6.0625,7.375,-0.0322265625,0.94921875,-0.248046875
1969/12/31/18:00:11.189000,51,1730348258,473102338,RL_myo,-0.3856229385965393,-0.4732700642414634,0.6220748639088207,0.4902379618245337,-15.3125,-5.625,7.8125,-0.0205078125,0.93017578125,-0.18505859375
1969/12/31/18:00:11.206000,52,1730348258,489678114,RL_myo,-0.3868429437825163,-0.4721705606029577,0.6217685497495257,0.4907253499544701,-6.5,0.375,4.875,0.02685546875,0.9736328125,-0.193359375
1969/12/31/18:00:11.228000,53,1730348258,512113090,RL_myo,-0.3878778638278897,-0.4716179785677583,0.621642178298514,0.4905998850430492,-2.625,4.0,9.1875,-0.04736328125,1.0185546875,-0.20947265625
1969/12/31/18:00:11.249000,54,1730348258,533166719,RL_myo,-0.3887409251512214,-0.4711400849807313,0.621167592285128,0.4909769197545022,-5.6875,3.25,10.3125,-0.09423828125,1.083984375,-0.23291015625
1969/12/31/18:00:11.265000,55,1730348258,549541225,RL_myo,-0.3896477371273033,-0.4706412438891973,0.6201160728717735,0.4920645452256139,-12.5625,3.125,7.0,-0.09716796875,1.052734375,-0.26220703125
1969/12/31/18:00:11.288000,56,1730348258,572006883,RL_myo,-0.3904393186205911,-0.4699676025290842,0.6190144707597367,0.4934659826555385,-14.875,0.9375,4.75,-0.07080078125,1.0546875,-0.2685546875
1969/12/31/18:00:11.309000,57,1730348258,592972068,RL_myo,-0.3904966795610003,-0.4702073178083692,0.6179710660448777,0.4944989211946271,-9.25,0.8125,-3.5625,-0.01220703125,1.05859375,-0.263671875
1969/12/31/18:00:11.325000,58,1730348258,609613283,RL_myo,-0.3904944183009055,-0.471364237658314,0.6160144051126976,0.495838801856292,-6.1875,3.9375,-12.5,0.01611328125,1.17138671875,-0.220703125
1969/12/31/18:00:11.348000,59,1730348258,632138867,RL_myo,-0.3913579802595577,-0.4730841710841909,0.6123055611297384,0.4981086208512555,-11.1875,9.375,-21.0625,0.04443359375,1.19140625,-0.15625
1969/12/31/18:00:11.369000,60,1730348258,653127889,RL_myo,-0.3924559399195508,-0.4760740795291596,0.6077268730604927,0.4999998537824199,-8.75,17.375,-25.5625,0.0185546875,1.19287109375,-0.13037109375
1969/12/31/18:00:11.385000,61,1730348258,668870444,RL_myo,-0.3919105977593603,-0.4807176246616916,0.6027891393040714,0.5019580682094658,-2.6875,17.75,-32.3125,-0.0537109375,1.14990234375,-0.12841796875
1969/12/31/18:00:11.408000,62,1730348258,692113841,RL_myo,-0.3900156582192829,-0.4862073135171843,0.5983291858409437,0.5034803074570994,4.875,15.3125,-39.6875,-0.037109375,1.1162109375,-0.13671875
1969/12/31/18:00:11.430000,63,1730348258,714530094,RL_myo,-0.3872646169901808,-0.4923662198990999,0.593988849889431,0.5047562462582814,8.5625,14.25,-45.5,-0.021484375,1.10302734375,-0.1533203125
1969/12/31/18:00:11.445000,64,1730348258,728862821,RL_myo,-0.3842742137158423,-0.4985310955576557,0.5894727376219195,0.5062824972638044,6.5625,13.5625,-45.4375,-0.0576171875,1.0224609375,-0.16162109375
1969/12/31/18:00:11.468000,65,1730348258,752152480,RL_myo,-0.3817860402542813,-0.5037988770997343,0.5851611139756666,0.507949388808334,1.25,11.1875,-42.3125,-0.04443359375,0.95361328125,-0.17724609375
1969/12/31/18:00:11.491000,66,1730348258,774605358,RL_myo,-0.3794583172670081,-0.5082434305746142,0.5807537218587071,0.5103186409312297,-3.9375,7.875,-40.6875,-0.056640625,0.92431640625,-0.1708984375
1969/12/31/18:00:11.505000,67,1730348258,788910207,RL_myo,-0.3772621698978528,-0.512273320167073,0.5764219272796185,0.5128226422070473,-4.875,6.6875,-38.0625,-0.0830078125,0.892578125,-0.162109375
1969/12/31/18:00:11.528000,68,1730348258,812057495,RL_myo,-0.3751246234589046,-0.5164219718655698,0.5726357333699061,0.5144688335722596,-2.875,8.5625,-33.8125,-0.09521484375,0.79345703125,-0.1767578125
1969/12/31/18:00:11.558000,69,1730348258,842109430,RL_myo,-0.3737301942175779,-0.5202802834412272,0.5701475982666006,0.5143596842514339,4.0,11.875,-25.625,-0.05859375,0.76416015625,-0.17041015625
1969/12/31/18:00:11.565000,70,1730348258,848823723,RL_myo,-0.3721269434679173,-0.5251402692468363,0.5689019583507393,0.5119568315251584,14.1875,17.875,-20.5625,-0.06396484375,0.7041015625,-0.21875
1969/12/31/18:00:11.588000,71,1730348258,872092373,RL_myo,-0.3700726424809477,-0.5304801807359256,0.5688730047703172,0.5079572044740965,25.4375,20.9375,-12.8125,-0.12060546875,0.72314453125,-0.22998046875
1969/12/31/18:00:11.611000,72,1730348258,895085500,RL_myo,-0.3672452360096995,-0.5360669615877,0.5694528921340363,0.5034744809446586,32.25,20.125,-10.25,-0.173828125,0.802734375,-0.25
1969/12/31/18:00:11.641000,73,1730348258,924586647,RL_myo,-0.3649897965541333,-0.540770835697261,0.5699456053883774,0.4995111195650546,26.5,18.0,-6.625,-0.1865234375,0.84228515625,-0.27490234375
1969/12/31/18:00:11.648000,74,1730348258,932040019,RL_myo,-0.3640183679898818,-0.5442575096186747,0.570014677843311,0.4963442938453586,16.1875,16.8125,-2.0625,-0.18994140625,0.85498046875,-0.283203125
1969/12/31/18:00:11.670000,75,1730348258,954524743,RL_myo,-0.364016835596293,-0.5468187173217957,0.5699512425885621,0.4935955985022169,8.1875,16.875,2.9375,-0.1943359375,0.8212890625,-0.30126953125
1969/12/31/18:00:11.691000,76,1730348258,975570181,RL_myo,-0.3644393614350423,-0.5489478507363541,0.5704321339762026,0.490354350991313,9.0,17.3125,7.9375,-0.1826171875,0.7939453125,-0.29931640625
1969/12/31/18:00:11.708000,77,1730348258,992059979,RL_myo,-0.365297737200261,-0.5506016520106191,0.5707433818813101,0.4874908984157869,7.9375,16.5625,9.125,-0.18408203125,0.8486328125,-0.27490234375
1969/12/31/18:00:11.730000,78,1730348259,14460702,RL_myo,-0.3665745777106923,-0.5515708389562982,0.5709188478031663,0.4852260893772901,2.875,14.75,10.5,-0.17529296875,0.8720703125,-0.279296875
1969/12/31/18:00:11.751000,79,1730348259,35617715,RL_myo,-0.3679122049065502,-0.5524176122443905,0.5715212154520465,0.482533824152486,5.4375,15.0,13.9375,-0.1875,0.8720703125,-0.27880859375
1969/12/31/18:00:11.768000,80,1730348259,52021934,RL_myo,-0.3685929048440594,-0.5535302291821121,0.5725122449805062,0.479555299446891,9.5,14.1875,14.25,-0.2021484375,0.904296875,-0.30029296875
1969/12/31/18:00:11.791000,81,1730348259,74611016,RL_myo,-0.3689072658113803,-0.5545816375185642,0.5739303475222385,0.476393317282896,12.3125,12.3125,14.875,-0.193359375,0.939453125,-0.31982421875
1969/12/31/18:00:11.812000,82,1730348259,95631933,RL_myo,-0.369944294952004,-0.554763850324825,0.5757605237225298,0.4731575935436289,7.4375,10.375,17.375,-0.13427734375,0.9248046875,-0.34619140625
1969/12/31/18:00:11.828000,83,1730348259,112011923,RL_myo,-0.3720687413996907,-0.5540137738984567,0.5775732447285553,0.4701518233270698,3.4375,10.25,20.125,-0.08203125,0.9091796875,-0.3115234375
1969/12/31/18:00:11.850000,84,1730348259,134468211,RL_myo,-0.3737714319463035,-0.5533330832830157,0.5792114449984357,0.4675804931647014,3.125,9.125,19.875,-0.11669921875,0.9287109375,-0.3193359375
1969/12/31/18:00:11.872000,85,1730348259,155721104,RL_myo,-0.3746372439666605,-0.5527394723626715,0.5811210817540852,0.465214251142699,4.8125,5.3125,19.375,-0.1396484375,0.93603515625,-0.34228515625
1969/12/31/18:00:11.888000,86,1730348259,171974595,RL_myo,-0.3761549498670796,-0.5513236511681536,0.5832446375028092,0.4630068878292497,3.25,3.4375,20.0,-0.064453125,0.93994140625,-0.3125
1969/12/31/18:00:11.910000,87,1730348259,194214507,RL_myo,-0.3774376626208683,-0.5499823379490046,0.5853213429065536,0.4609329282200514,0.9375,3.0625,20.4375,-0.087890625,0.93017578125,-0.3447265625
1969/12/31/18:00:11.939000,88,1730348259,223139936,RL_myo,-0.3789662821025136,-0.5484604623889817,0.5877669989768411,0.4583728102093538,3.5,3.625,22.625,-0.05517578125,0.89599609375,-0.32958984375
1969/12/31/18:00:11.948000,89,1730348259,231989211,RL_myo,-0.3806111040930058,-0.5469301000284518,0.5908749356517623,0.4548290487012635,7.75,5.375,25.75,-0.03173828125,0.87744140625,-0.3291015625
1969/12/31/18:00:11.970000,90,1730348259,254437464,RL_myo,-0.3813542176023347,-0.5459688662696677,0.5946757589788007,0.4503861670434743,16.375,5.5625,27.4375,-0.046875,0.919921875,-0.3544921875
1969/12/31/18:00:11.991000,91,1730348259,275685787,RL_myo,-0.3818419631396169,-0.545052546489255,0.5982760426301991,0.4462961052552556,14.625,4.4375,26.125,-0.05419921875,0.9912109375,-0.39990234375
1969/12/31/18:00:12.008000,92,1730348259,291980763,RL_myo,-0.3830632642042361,-0.543344355950623,0.6010846121547669,0.443550149931833,4.875,2.4375,24.75,-0.0341796875,1.0234375,-0.39599609375
1969/12/31/18:00:12.030000,93,1730348259,314539183,RL_myo,-0.3856758694333607,-0.5408861457380033,0.6028970150756033,0.4418274440304001,-5.9375,3.75,23.375,-0.00048828125,0.99658203125,-0.369140625
1969/12/31/18:00:12.051000,94,1730348259,335566810,RL_myo,-0.388669798705717,-0.5384492720134793,0.6040006796469497,0.4406714740350623,-10.875,5.25,22.0,-0.00390625,0.95947265625,-0.36083984375
1969/12/31/18:00:12.068000,95,1730348259,352022946,RL_myo,-0.3912949450687029,-0.5363749769558199,0.6050392747568323,0.4394515059264796,-9.0,5.375,20.375,-0.00927734375,0.98291015625,-0.36376953125
1969/12/31/18:00:12.090000,96,1730348259,374475175,RL_myo,-0.3935594428992463,-0.5345523574614763,0.6058422813613399,0.4385428965929102,-5.1875,5.0625,18.3125,-0.017578125,1.01611328125,-0.31591796875
1969/12/31/18:00:12.112000,97,1730348259,395612178,RL_myo,-0.3955802332493114,-0.5331574351848072,0.6062796569766101,0.4378177770555949,-8.375,5.6875,15.875,-0.03515625,0.95947265625,-0.34228515625
1969/12/31/18:00:12.128000,98,1730348259,411882433,RL_myo,-0.3986212811352187,-0.5311288299553932,0.6063853051720101,0.4373786710480749,-12.5625,6.0625,15.4375,0.0263671875,0.9658203125,-0.3115234375
1969/12/31/18:00:12.150000,99,1730348259,434473198,RL_myo,-0.4024645901408362,-0.5288069774006983,0.6058331091504306,0.4374376277736386,-18.8125,9.1875,17.375,0.0029296875,0.892578125,-0.28125
1969/12/31/18:00:12.172000,100,1730348259,455690834,RL_myo,-0.405700489385052,-0.5280759190852219,0.6062008816868266,0.4348142449795562,6.0625,15.9375,16.375,0.05810546875,1.19873046875,-0.251953125
1969/12/31/18:00:12.187000,101,1730348259,471383500,RL_myo,-0.4083864776895296,-0.5292971954152743,0.6008914770368284,0.4381716519702784,-12.9375,11.125,-30.9375,0.1728515625,1.15283203125,-0.087890625
1969/12/31/18:00:12.210000,102,1730348259,494516738,RL_myo,-0.4037453100176242,-0.5342987821457721,0.6018643238221908,0.4350561707945012,30.8125,9.375,-0.625,-0.24658203125,0.98388671875,-0.421875
1969/12/31/18:00:12.232000,103,1730348259,515627585,RL_myo,-0.3999706300896236,-0.5356542422808693,0.6062731983336229,0.4307329065378412,43.625,-7.4375,7.125,0.060546875,1.06689453125,-0.29931640625
1969/12/31/18:00:12.247000,104,1730348259,531390557,RL_myo,-0.3949000810063535,-0.5393712543822483,0.6077310829335799,0.4287137819147801,39.0625,-6.0,-16.5625,0.02294921875,0.9267578125,-0.24658203125
1969/12/31/18:00:12.278000,105,1730348259,562088520,RL_myo,-0.3924020699120511,-0.5409643094774474,0.6085314414408384,0.4278641328485734,19.75,-2.8125,-4.25,-0.03271484375,0.95703125,-0.27685546875
1969/12/31/18:00:12.291000,106,1730348259,575568385,RL_myo,-0.3933032665184011,-0.5404563043172629,0.6083261417425363,0.4279705935485768,-1.4375,2.25,4.1875,-0.0029296875,0.98974609375,-0.28857421875
1969/12/31/18:00:12.307000,107,1730348259,591313960,RL_myo,-0.394414368582908,-0.5405954909530821,0.6066974348056494,0.4290827934289452,-11.8125,5.875,-1.125,-0.04296875,0.9619140625,-0.33740234375
1969/12/31/18:00:12.330000,108,1730348259,614598466,RL_myo,-0.3943460357106452,-0.5411348015184306,0.6061368953168886,0.4292579583892536,-9.875,2.4375,-2.9375,-0.01025390625,0.93115234375,-0.45263671875
1969/12/31/18:00:12.353000,109,1730348259,636866088,RL_myo,-0.3942239741281366,-0.541439986761217,0.6057706987493042,0.4295021065087007,-15.0,-0.25,-5.6875,0.0537109375,0.947265625,-0.5380859375
1969/12/31/18:00:12.367000,110,1730348259,651336643,RL_myo,-0.3967889964738125,-0.5401603782176959,0.6040640975390437,0.4311517414383959,-40.25,1.6875,-6.6875,0.14013671875,0.89453125,-0.58447265625
1969/12/31/18:00:12.390000,111,1730348259,674539330,RL_myo,-0.4051485621705791,-0.5355187533119404,0.598323494269085,0.4371307626191153,-86.375,7.875,-8.5625,0.22265625,1.0009765625,-0.525390625
1969/12/31/18:00:12.413000,112,1730348259,697019128,RL_myo,-0.4191899707971555,-0.5289313172580299,0.5855109769739535,0.4490972342931669,-137.3125,24.0,-12.75,0.21435546875,0.9111328125,-0.57373046875
1969/12/31/18:00:12.427000,113,1730348259,711439708,RL_myo,-0.4382976059596538,-0.5205127396774721,0.5675102548688011,0.4635663998417449,-180.5,40.875,-16.0625,0.2646484375,0.8740234375,-0.599609375
1969/12/31/18:00:12.450000,114,1730348259,734526872,RL_myo,-0.4579454765359688,-0.5167221650477825,0.5444320472745358,0.4763170063823404,-178.375,72.5625,-45.375,0.52001953125,0.79736328125,-0.51611328125
1969/12/31/18:00:12.473000,115,1730348259,757062081,RL_myo,-0.4773549380746201,-0.5213001567696369,0.5137928485759049,0.4862050168395888,-163.5,122.5625,-92.5,0.849609375,0.6708984375,-0.236328125
1969/12/31/18:00:12.487000,116,1730348259,771396575,RL_myo,-0.4951228971100043,-0.533392381391066,0.4762017804798143,0.4935359647474723,-146.4375,166.1875,-137.125,1.03955078125,0.556640625,0.021484375
1969/12/31/18:00:12.510000,117,1730348259,794576520,RL_myo,-0.5073356843989639,-0.5498781497534007,0.4372047049265855,0.4990957520849769,-113.75,174.0,-162.3125,0.916015625,0.47900390625,0.1904296875
1969/12/31/18:00:12.533000,118,1730348259,816993740,RL_myo,-0.512436208603616,-0.5681596791199455,0.397937598867982,0.5062108044495465,-90.1875,157.4375,-185.4375,0.50439453125,0.40478515625,0.19775390625
1969/12/31/18:00:12.554000,119,1730348259,838155304,RL_myo,-0.5110466055706209,-0.587218367633458,0.3569940996037933,0.516295621225592,-81.0625,140.0,-213.875,0.0830078125,0.4306640625,0.04541015625
1969/12/31/18:00:12.570000,120,1730348259,854534557,RL_myo,-0.5046298232981812,-0.6055191675061992,0.3178044859595584,0.5269682987852559,-62.75,119.8125,-219.0625,-0.20654296875,0.48779296875,0.046875
1969/12/31/18:00:12.593000,121,1730348259,877033194,RL_myo,-0.4960286181758889,-0.6196237888177217,0.2850928602804943,0.5373490776941708,-46.25,85.8125,-193.625,-0.328125,0.5322265625,0.0810546875
1969/12/31/18:00:12.607000,122,1730348259,891388214,RL_myo,-0.4893250071987731,-0.6272051607801662,0.2592806075315439,0.5476753510782826,-48.9375,49.6875,-152.1875,-0.37646484375,0.5048828125,0.17578125
1969/12/31/18:00:12.636000,123,1730348259,920626795,RL_myo,-0.4864429984462363,-0.6268828151871133,0.2400477180538328,0.559256862580033,-65.5,8.375,-107.8125,-0.41064453125,0.4765625,0.24462890625
1969/12/31/18:00:12.660000,124,1730348259,944541828,RL_myo,-0.4910963671838138,-0.6178072866809052,0.2246738413626173,0.5715419316814856,-105.1875,-22.8125,-59.125,-0.49658203125,0.533203125,0.28564453125
1969/12/31/18:00:12.674000,125,1730348259,958093556,RL_myo,-0.5036619433236322,-0.601074020583026,0.2136229764460388,0.5825803743364117,-138.75,-46.0625,-1.8125,-0.71484375,0.59912109375,0.3564453125
1969/12/31/18:00:12.690000,126,1730348259,974525229,RL_myo,-0.5215305679437477,-0.5760944448005892,0.2110535639496173,0.5929396685282048,-151.5625,-90.0625,59.8125,-0.9033203125,0.59814453125,0.40625
1969/12/31/18:00:12.713000,127,1730348259,997052815,RL_myo,-0.543229578211553,-0.5405439488361251,0.2143620537841544,0.6056094241589921,-179.5,-148.0,98.625,-0.9072265625,0.640625,0.43212890625
1969/12/31/18:00:12.734000,128,1730348260,18117199,RL_myo,-0.5631855937069271,-0.4973269987562633,0.2236384540307988,0.6208652713977308,-180.9375,-203.9375,111.1875,-0.82177734375,0.70947265625,0.52294921875
1969/12/31/18:00:12.750000,129,1730348260,34589546,RL_myo,-0.5808632954950498,-0.4515926787189107,0.2414516336007583,0.6327424382050206,-148.25,-234.9375,141.5,-0.73974609375,0.70947265625,0.5458984375
1969/12/31/18:00:12.773000,130,1730348260,57003267,RL_myo,-0.5953441165078931,-0.4034472636987055,0.2643464597699082,0.642585898974277,-126.125,-259.9375,152.375,-0.63720703125,0.75,0.66650390625
1969/12/31/18:00:12.794000,131,1730348260,78087848,RL_myo,-0.6056728699510364,-0.3542603383246816,0.2887063060433742,0.6513897881807378,-115.25,-274.875,147.125,-0.6875,0.8740234375,0.65966796875
1969/12/31/18:00:12.810000,132,1730348260,94503926,RL_myo,-0.613405019295452,-0.3053597324910593,0.3151864198648472,0.6566180296099973,-96.3125,-280.0625,155.25,-0.70849609375,0.875,0.6435546875
1969/12/31/18:00:12.841000,133,1730348260,124576766,RL_myo,-0.6177471826431594,-0.2558026323937833,0.3409481041640834,0.6608387260623937,-92.0625,-283.4375,144.25,-0.50830078125,0.79736328125,0.71435546875
1969/12/31/18:00:12.855000,134,1730348260,139573826,RL_myo,-0.6173184391322059,-0.2102691341517153,0.3679862437737857,0.6627902838181357,-61.6875,-277.5,126.125,-0.2666015625,0.82177734375,0.765625
1969/12/31/18:00:12.870000,135,1730348260,154457060,RL_myo,-0.6140730450918394,-0.1728510946923853,0.397337791824657,0.6596661834164198,-10.1875,-253.625,117.9375,-0.052734375,0.947265625,0.8154296875
1969/12/31/18:00:12.870000,1,1730348265,110622001,RL_myo,-0.6303812081875103,-0.005554288337051,0.4590527756369351,0.6259866064263271,9.75,-52.25,166.0625,0.5244140625,0.80517578125,0.69775390625
1969/12/31/18:00:12.885000,2,1730348265,126401727,RL_myo,-0.6433107290104864,0.0184326224061828,0.45776380147805,0.613403493980587,-62.125,-49.6875,161.125,0.5654296875,1.09033203125,0.80029296875
1969/12/31/18:00:12.909000,3,1730348265,149663784,RL_myo,-0.6555813217207328,0.0344239703426583,0.4474505790461495,0.6073023136692386,-83.9375,12.625,115.3125,0.74169921875,1.22607421875,0.7802734375
1969/12/31/18:00:12.930000,4,1730348265,170659454,RL_myo,-0.6559507145594686,0.0405277076828405,0.4380532500598592,0.6133477929290128,-56.75,-2.5,-3.6875,0.56591796875,0.435546875,0.970703125
1969/12/31/18:00:12.946000,5,1730348265,187160467,RL_myo,-0.6586877341440077,0.0317381043138328,0.4416479284901816,0.6083340109537921,70.375,20.0,-3.4375,0.7138671875,0.3681640625,0.77294921875
1969/12/31/18:00:12.968000,6,1730348265,209540213,RL_myo,-0.6628451983317862,0.0198975630438455,0.4477562039559837,0.599795558379969,94.25,27.0,9.5625,0.44287109375,0.2294921875,0.4404296875
1969/12/31/18:00:12.991000,7,1730348265,232082330,RL_myo,-0.6697323088964484,0.0065917332872337,0.4578202906253767,0.5846501218371529,125.5625,22.75,45.75,0.400390625,0.31494140625,0.427734375
1969/12/31/18:00:13.005000,8,1730348265,246320984,RL_myo,-0.6771907171052862,-0.0055542456292547,0.4687539168425956,0.5671434108465363,128.25,18.8125,59.9375,0.73095703125,0.64453125,0.53173828125
1969/12/31/18:00:13.037000,9,1730348265,277576223,RL_myo,-0.6803668402270368,-0.0175172946214371,0.4785822547968238,0.5547550202586827,109.6875,11.375,27.0625,0.83740234375,0.76171875,0.55126953125
1969/12/31/18:00:13.051000,10,1730348265,292182926,RL_myo,-0.6812164178434013,-0.0317384228365351,0.4885275699685139,0.5443139516465776,113.625,11.3125,5.8125,0.90478515625,0.8818359375,0.62353515625
1969/12/31/18:00:13.065000,11,1730348265,306482111,RL_myo,-0.6835632884665537,-0.0510887108176181,0.495322447174398,0.533654239759182,124.6875,43.4375,-3.625,1.0322265625,1.00927734375,0.71044921875
1969/12/31/18:00:13.089000,12,1730348265,329623187,RL_myo,-0.6879526262005016,-0.0751980867251368,0.4966003519445728,0.5238840733456575,124.4375,85.1875,-17.1875,1.08251953125,1.0400390625,0.79833984375
1969/12/31/18:00:13.111000,13,1730348265,352098513,RL_myo,-0.6919593827750209,-0.101929273108784,0.4916408951444644,0.5187406539829674,101.3125,113.875,-43.625,0.8505859375,1.18359375,0.705078125
1969/12/31/18:00:13.125000,14,1730348265,366451525,RL_myo,-0.6942119418081866,-0.1347652512319743,0.4826036419797196,0.5167221996965102,102.6875,141.0,-78.4375,0.65185546875,1.35888671875,0.56884765625
1969/12/31/18:00:13.149000,15,1730348265,390096115,RL_myo,-0.6936784484984999,-0.1730381347552351,0.4690645734017573,0.5185040404746817,101.6875,164.75,-119.0,0.49072265625,1.443359375,0.4931640625
1969/12/31/18:00:13.171000,16,1730348265,412150369,RL_myo,-0.6910983413478774,-0.2111197706192977,0.4489117990473937,0.5256326870694975,69.25,179.0,-153.125,0.2685546875,1.283203125,0.39697265625
1969/12/31/18:00:13.192000,17,1730348265,433242044,RL_myo,-0.6878720048261915,-0.2487813923399784,0.4264562287240994,0.532047938426789,64.875,185.3125,-154.9375,0.11669921875,1.072265625,0.408203125
1969/12/31/18:00:13.208000,18,1730348265,449551244,RL_myo,-0.6805028832117401,-0.2901094451435466,0.4078500552175843,0.535173493586917,108.75,175.5625,-159.75,0.05419921875,0.814453125,0.45361328125
1969/12/31/18:00:13.231000,19,1730348265,472481221,RL_myo,-0.6660638729958963,-0.3369686284990693,0.3947678118333599,0.5356952820750465,165.625,159.1875,-176.1875,0.0146484375,0.72119140625,0.3837890625
1969/12/31/18:00:13.252000,20,1730348265,493151086,RL_myo,-0.6442240642874979,-0.3896472218295961,0.3869006483674513,0.5324080068952955,225.125,147.125,-185.125,-0.177734375,0.7880859375,0.2451171875
1969/12/31/18:00:13.269000,21,1730348265,509620909,RL_myo,-0.6167088794751094,-0.4439766814431854,0.3811705218054294,0.5265585414916636,256.25,136.625,-188.9375,-0.42822265625,0.9013671875,0.18994140625
1969/12/31/18:00:13.291000,22,1730348265,532138790,RL_myo,-0.5871644447842558,-0.4937796630254292,0.3735391270353062,0.5214288827226504,239.5625,123.625,-191.625,-0.56298828125,0.96923828125,0.2138671875
1969/12/31/18:00:13.312000,23,1730348265,553141704,RL_myo,-0.5593652015178714,-0.5372103113759197,0.3630228280009055,0.5164591746038437,205.5,118.5625,-181.6875,-0.5830078125,0.87744140625,0.21728515625
1969/12/31/18:00:13.336000,24,1730348265,577088359,RL_myo,-0.5339850783256987,-0.5754270566298648,0.3511887233610778,0.5103039478661752,181.0625,116.6875,-164.25,-0.62109375,0.80224609375,0.22607421875
1969/12/31/18:00:13.351000,25,1730348265,592143263,RL_myo,-0.5099490771656418,-0.6090702383047204,0.3398439810482697,0.5034793462045934,166.625,107.5625,-147.1875,-0.6484375,0.70361328125,0.216796875
1969/12/31/18:00:13.372000,26,1730348265,613223023,RL_myo,-0.4877890827775059,-0.6358591922392464,0.3305637728131846,0.4984701500305168,142.25,79.875,-126.75,-0.64892578125,0.6484375,0.193359375
1969/12/31/18:00:13.389000,27,1730348265,629518986,RL_myo,-0.4674709104942876,-0.6558875054408688,0.3249530131181077,0.495669312459082,121.875,46.1875,-101.1875,-0.66552734375,0.5693359375,0.11181640625
1969/12/31/18:00:13.411000,28,1730348265,652066700,RL_myo,-0.4492861403209722,-0.6695040990600114,0.3242233361479424,0.4947579749275643,106.9375,11.625,-70.1875,-0.666015625,0.52587890625,0.0966796875
1969/12/31/18:00:13.432000,29,1730348265,673124800,RL_myo,-0.4326780840370459,-0.6770627713673226,0.3263548759128346,0.4978636100282386,92.0,-19.25,-31.25,-0.669921875,0.47265625,0.06787109375
1969/12/31/18:00:13.448000,30,1730348265,689510119,RL_myo,-0.4204140959553926,-0.6778627975726756,0.3345368263547483,0.5018357573962308,75.1875,-49.5,3.9375,-0.48828125,0.44677734375,0.08544921875
1969/12/31/18:00:13.471000,31,1730348265,712066549,RL_myo,-0.4158818120818817,-0.6703301940263146,0.3473412668855282,0.507004727467595,39.6875,-75.5,38.75,-0.25927734375,0.6142578125,0.11572265625
1969/12/31/18:00:13.492000,32,1730348265,733052823,RL_myo,-0.4190525612824304,-0.6586681097232726,0.3601557186320451,0.51072412362531,-4.0,-71.625,58.9375,-0.08251953125,0.73828125,-0.00341796875
1969/12/31/18:00:13.508000,33,1730348265,749512189,RL_myo,-0.4193115906059736,-0.6491089906978936,0.3712769149426692,0.5147705902723118,-2.25,-71.375,47.0625,-0.1533203125,0.62841796875,-0.1201171875
1969/12/31/18:00:13.531000,34,1730348265,771977064,RL_myo,-0.41424074220644,-0.6405564445935742,0.3868362787836182,0.518121358566446,33.6875,-86.9375,53.6875,-0.15234375,0.37841796875,-0.1044921875
1969/12/31/18:00:13.552000,35,1730348265,793118531,RL_myo,-0.4098418082974202,-0.6301127072021692,0.4097197407446882,0.5168340182669477,60.125,-92.8125,83.8125,0.0576171875,0.42919921875,-0.09130859375
1969/12/31/18:00:13.559000,36,1730348265,800002580,RL_myo,-0.4055769732113395,-0.6193212260610177,0.4374982308470853,0.5104349476247454,86.375,-88.8125,99.125,0.24755859375,0.64892578125,-0.12841796875
1969/12/31/18:00:13.574000,37,1730348265,815045525,RL_myo,-0.3995904701119218,-0.611439946476437,0.4626997638488589,0.5023719504339741,96.875,-69.5,102.375,0.2724609375,0.7646484375,-0.14404296875
1969/12/31/18:00:13.596000,38,1730348265,837513934,RL_myo,-0.3954480398428109,-0.6043720466929332,0.4855972534325364,0.492494248107986,90.25,-50.4375,104.1875,0.19482421875,0.70654296875,-0.16064453125
1969/12/31/18:00:13.622000,39,1730348265,862745190,RL_myo,-0.3928243246125923,-0.5966828150112962,0.5076320552832396,0.4816309424359797,69.25,-48.375,96.9375,0.1259765625,0.740234375,-0.404296875
1969/12/31/18:00:13.641000,40,1730348265,882457513,RL_myo,-0.3875709797369219,-0.5898403067996241,0.5287444720410952,0.4714938296799562,70.8125,-54.1875,84.1875,0.10498046875,0.85595703125,-0.51953125
1969/12/31/18:00:13.656000,41,1730348265,897412923,RL_myo,-0.381961675401572,-0.583135482068811,0.5487113234036646,0.4614912476368306,76.875,-52.4375,77.25,0.14697265625,0.90625,-0.44580078125
1969/12/31/18:00:13.679000,42,1730348265,919979723,RL_myo,-0.3803552513439203,-0.5744389643210812,0.563514126389348,0.455852595039753,36.3125,-47.25,68.625,0.14208984375,0.9775390625,-0.40771484375
1969/12/31/18:00:13.694000,43,1730348265,934977570,RL_myo,-0.3811022925410487,-0.5645123484484561,0.5744000120281566,0.454039070181432,-0.4375,-47.25,58.4375,0.14892578125,1.00048828125,-0.47265625
1969/12/31/18:00:13.716000,44,1730348265,957464014,RL_myo,-0.3812250682844108,-0.5557243430562857,0.5841056521744815,0.452391963836704,0.375,-43.5,49.5,0.15673828125,0.9345703125,-0.455078125
1969/12/31/18:00:13.739000,45,1730348265,979893289,RL_myo,-0.3808447670454535,-0.5486239761172407,0.5933610296820351,0.4493235857353571,9.0625,-33.5625,50.3125,0.0927734375,0.896484375,-0.45263671875
1969/12/31/18:00:13.754000,46,1730348265,994979983,RL_myo,-0.380243173270579,-0.5422279857681901,0.6020415186422138,0.4460380594320051,10.75,-29.125,49.1875,0.05126953125,0.9892578125,-0.48583984375
1969/12/31/18:00:13.776000,47,1730348266,17442378,RL_myo,-0.3807346991924596,-0.5357629351573278,0.6096760035641999,0.4430511672712511,8.25,-25.3125,45.375,0.11865234375,1.02978515625,-0.4365234375
1969/12/31/18:00:13.799000,48,1730348266,39956296,RL_myo,-0.3832266677930969,-0.5295229447002562,0.6152744128081239,0.440658789849683,-5.75,-15.4375,40.3125,0.15234375,0.9814453125,-0.43408203125
1969/12/31/18:00:13.814000,49,1730348266,54947627,RL_myo,-0.3874564345022814,-0.523444609686762,0.6178062429162086,0.4406798136588644,-25.625,-7.8125,34.25,0.1005859375,0.9580078125,-0.40234375
1969/12/31/18:00:13.836000,50,1730348266,77296001,RL_myo,-0.3898225321588801,-0.5197023424663949,0.6209573261600825,0.4385884947696434,-6.75,-2.75,29.5625,0.08056640625,0.9130859375,-0.3955078125
1969/12/31/18:00:13.859000,51,1730348266,99822249,RL_myo,-0.3910019389122218,-0.5190572101950568,0.6247119645280347,0.4329342417584123,21.125,9.0,22.875,0.1298828125,0.90478515625,-0.35888671875
1969/12/31/18:00:13.874000,52,1730348266,114898848,RL_myo,-0.3886824987920655,-0.5230855864711057,0.6294727716775395,0.4231683046679318,52.5,20.5625,15.6875,0.05126953125,0.94677734375,-0.49609375
1969/12/31/18:00:13.896000,53,1730348266,137397016,RL_myo,-0.3828715632909044,-0.5291720793451525,0.6339078680598332,0.4141824371898737,77.0625,11.875,0.5625,0.01416015625,1.28173828125,-0.45751953125
1969/12/31/18:00:13.919000,54,1730348266,159919862,RL_myo,-0.3784906851294199,-0.5343182482862348,0.635578697670158,0.40900920513663,52.75,8.9375,-10.3125,0.0185546875,1.22314453125,-0.4189453125
1969/12/31/18:00:13.934000,55,1730348266,174983605,RL_myo,-0.3770745091113072,-0.5353994163037207,0.6370838015707064,0.4065544359324081,12.6875,5.1875,10.0,-0.06103515625,1.04931640625,-0.53466796875
1969/12/31/18:00:13.956000,56,1730348266,197445139,RL_myo,-0.3748163143692237,-0.535582667088412,0.6390370967995069,0.4053338452574522,16.0625,-5.625,9.25,-0.05078125,1.0126953125,-0.43212890625
1969/12/31/18:00:13.982000,57,1730348266,222791877,RL_myo,-0.3728610776284337,-0.5349692822742218,0.6409255485637882,0.4049653380364474,8.375,-9.3125,9.5625,-0.041015625,0.8837890625,-0.41064453125
1969/12/31/18:00:13.994000,58,1730348266,234954785,RL_myo,-0.3693857440114461,-0.5344252436490784,0.644227780575151,0.4036265573608217,17.625,-13.0,15.1875,-0.08154296875,0.9150390625,-0.46923828125
1969/12/31/18:00:14.016000,59,1730348266,257536244,RL_myo,-0.3659765682707767,-0.5340108398600776,0.6477223719962445,0.4016830880236793,28.5625,-13.0,13.75,-0.03759765625,0.9521484375,-0.369140625
1969/12/31/18:00:14.039000,60,1730348266,280015522,RL_myo,-0.3634104461581892,-0.5334577258015745,0.6505254509832014,0.4002153670573139,17.8125,-10.1875,12.4375,-0.0244140625,0.90283203125,-0.42431640625
1969/12/31/18:00:14.054000,61,1730348266,295049541,RL_myo,-0.3624334621429503,-0.5318701901505,0.6529661801962415,0.3992383421820542,9.125,-7.25,17.875,-0.02587890625,0.919921875,-0.42236328125
1969/12/31/18:00:14.076000,62,1730348266,317523779,RL_myo,-0.3626775613457821,-0.5291845265681473,0.6555296211467014,0.3983837837266779,-0.9375,-6.5625,22.375,0.01953125,0.951171875,-0.49560546875
1969/12/31/18:00:14.099000,63,1730348266,340001030,RL_myo,-0.3623047482360714,-0.52777108456828,0.6576539188415886,0.3970947931307077,4.5,-4.75,14.1875,0.05419921875,0.95263671875,-0.498046875
1969/12/31/18:00:14.114000,64,1730348266,354999869,RL_myo,-0.3616375478694743,-0.5267395844917406,0.6592484649009607,0.3964279955126136,3.125,-5.125,10.875,0.0234375,0.93896484375,-0.48486328125
1969/12/31/18:00:14.136000,65,1730348266,377471287,RL_myo,-0.3614621737601038,-0.5247976646385297,0.6606664249880723,0.3968027003739336,-3.0,-7.3125,13.8125,0.01171875,0.9853515625,-0.48486328125
1969/12/31/18:00:14.159000,66,1730348266,400069612,RL_myo,-0.3624380766072856,-0.5225993283785079,0.6615807194924839,0.3972902392450021,-8.25,-4.0625,13.75,0.046875,0.95654296875,-0.45751953125
1969/12/31/18:00:14.177000,67,1730348266,417959731,RL_myo,-0.3645601783987049,-0.5208700087819434,0.6613108208521628,0.398068220913503,-14.1875,2.4375,8.5625,0.072265625,0.97607421875,-0.4619140625
1969/12/31/18:00:14.196000,68,1730348266,437490983,RL_myo,-0.3651698035958848,-0.5213572559445174,0.6603329609065481,0.3984946761954758,-4.75,4.8125,-2.75,0.05615234375,1.04833984375,-0.478515625
1969/12/31/18:00:14.214000,69,1730348266,455385737,RL_myo,-0.3654278518691558,-0.5233913194885603,0.6579776587856186,0.3994864356912685,-3.75,6.9375,-17.625,0.0966796875,1.126953125,-0.48486328125
1969/12/31/18:00:14.234000,70,1730348266,474953172,RL_myo,-0.3649950219538095,-0.5269234154727823,0.6544275293292218,0.4010672724512513,-2.75,8.75,-28.75,0.078125,1.1728515625,-0.490234375
1969/12/31/18:00:14.256000,71,1730348266,497490958,RL_myo,-0.3640246333756042,-0.5312659974683533,0.6498608771881386,0.4036376426077919,-5.5625,8.8125,-35.5625,0.0244140625,1.158203125,-0.47900390625
1969/12/31/18:00:14.279000,72,1730348266,520114842,RL_myo,-0.3624253853980201,-0.5358866426060318,0.6448950188810173,0.4069198458148535,-9.25,6.25,-39.875,-0.00927734375,1.1435546875,-0.5087890625
1969/12/31/18:00:14.294000,73,1730348266,535002912,RL_myo,-0.3605438967377705,-0.5406632533101694,0.6392985905588976,0.4110822997340247,-11.9375,3.0625,-47.625,0.01953125,1.09423828125,-0.46826171875
1969/12/31/18:00:14.324000,74,1730348266,565085301,RL_myo,-0.3595654439158236,-0.5452381786623752,0.6333747430851302,0.4150475332927517,-13.875,5.9375,-48.5625,0.0478515625,0.99365234375,-0.396484375
1969/12/31/18:00:14.340000,75,1730348266,581355256,RL_myo,-0.3593902509704699,-0.5495228310949628,0.6271628445518986,0.4189630914845967,-15.125,9.0625,-45.5,0.0205078125,0.9287109375,-0.32373046875
1969/12/31/18:00:14.354000,76,1730348266,595074194,RL_myo,-0.3582827137760563,-0.5541479997227965,0.6211657884325256,0.4227369805132821,-11.4375,9.25,-42.3125,-0.07861328125,0.8837890625,-0.31591796875
1969/12/31/18:00:14.376000,77,1730348266,617529968,RL_myo,-0.356509708434602,-0.5587821230472148,0.6159726035819215,0.4257242280998714,-5.6875,7.6875,-39.875,-0.0859375,0.82177734375,-0.30615234375
1969/12/31/18:00:14.399000,78,1730348266,639972779,RL_myo,-0.3546174884625462,-0.5634816959528789,0.611883015806717,0.4270058432502536,2.875,10.375,-33.75,-0.09228515625,0.77587890625,-0.29345703125
1969/12/31/18:00:14.414000,79,1730348266,655107471,RL_myo,-0.3520576136631343,-0.5686755871184851,0.6091426810606935,0.4261557313793349,14.625,13.875,-27.1875,-0.11083984375,0.7255859375,-0.31787109375
1969/12/31/18:00:14.436000,80,1730348266,677434207,RL_myo,-0.3491187989037631,-0.574214975539616,0.6076009865536647,0.4233370610483393,24.3125,17.125,-21.4375,-0.1162109375,0.70458984375,-0.34423828125
1969/12/31/18:00:14.459000,81,1730348266,699988465,RL_myo,-0.3462044396803569,-0.5796116641757174,0.6072616308850266,0.4188390100646348,32.875,20.0,-14.1875,-0.11376953125,0.6962890625,-0.34912109375
1969/12/31/18:00:14.474000,82,1730348266,714918390,RL_myo,-0.3431968007877917,-0.5850763884673255,0.6070487961293572,0.4139967810321164,34.8125,21.625,-11.625,-0.14404296875,0.751953125,-0.388671875
1969/12/31/18:00:14.497000,83,1730348266,737522405,RL_myo,-0.3399035752665693,-0.5902078600875786,0.6067483285553898,0.409849615355542,30.625,19.0625,-9.6875,-0.20068359375,0.771484375,-0.4365234375
1969/12/31/18:00:14.519000,84,1730348266,760010651,RL_myo,-0.3375767456794581,-0.594100893589558,0.6063076101210878,0.4067888284132324,19.625,15.1875,-7.8125,-0.17529296875,0.80322265625,-0.482421875
1969/12/31/18:00:14.534000,85,1730348266,774992955,RL_myo,-0.3374068147092743,-0.5962603424194829,0.6055378091046872,0.4049125920371429,5.4375,13.5,-3.1875,-0.123046875,0.81591796875,-0.4697265625
1969/12/31/18:00:14.556000,86,1730348266,797480487,RL_myo,-0.338188545380007,-0.5976434283272024,0.6041130160929993,0.4043492353623075,-6.875,13.25,-0.8125,-0.16845703125,0.81201171875,-0.49267578125
1969/12/31/18:00:14.579000,87,1730348266,820040311,RL_myo,-0.3394208852237388,-0.5985184679920846,0.6030351278565976,0.4036306984327611,-7.4375,13.375,3.25,-0.15771484375,0.79296875,-0.47021484375
1969/12/31/18:00:14.594000,88,1730348266,834916213,RL_myo,-0.3412000243654857,-0.5990837637114923,0.602318754997963,0.4023596709512132,-5.5625,14.375,5.5,-0.115234375,0.8046875,-0.453125
1969/12/31/18:00:14.616000,89,1730348266,857423421,RL_myo,-0.3423506991807843,-0.5998614140753696,0.6017535288328316,0.4010672926220242,-2.375,13.9375,6.0,-0.15185546875,0.841796875,-0.4697265625
1969/12/31/18:00:14.634000,90,1730348266,875450168,RL_myo,-0.3438026680219945,-0.6002661530261524,0.6013037254309764,0.3998926115533655,-4.5,12.625,7.1875,-0.134765625,0.861328125,-0.47998046875
1969/12/31/18:00:14.655000,91,1730348266,896380412,RL_myo,-0.3459411442060145,-0.6002091058789603,0.6011856510990197,0.3983083816316956,-4.5,13.8125,9.6875,-0.091796875,0.87939453125,-0.46533203125
1969/12/31/18:00:14.676000,92,1730348266,917465569,RL_myo,-0.3474183592883779,-0.60041363322554,0.6014512495480808,0.3963083989563313,-1.25,13.375,11.375,-0.1181640625,0.8681640625,-0.49658203125
1969/12/31/18:00:14.694000,93,1730348266,935261602,RL_myo,-0.3481462010715486,-0.6007108890158102,0.6024198815876901,0.3937396814713464,5.0,11.75,13.0,-0.11376953125,0.85205078125,-0.49560546875
1969/12/31/18:00:14.715000,94,1730348266,956409069,RL_myo,-0.3496708048519256,-0.6003424745197312,0.6034552710020926,0.39135786362551,2.0625,10.8125,13.5625,-0.0625,0.8994140625,-0.4921875
1969/12/31/18:00:14.736000,95,1730348266,977495872,RL_myo,-0.3514438991655777,-0.5999815089957674,0.6038877975589139,0.3896522841738534,-2.875,11.0,11.625,-0.06396484375,0.904296875,-0.501953125
1969/12/31/18:00:14.754000,96,1730348266,995223255,RL_myo,-0.3533215818669646,-0.5990415142553562,0.6041683086718056,0.3889650097146597,-7.5,7.625,13.0625,-0.09228515625,0.912109375,-0.4892578125
1969/12/31/18:00:14.775000,97,1730348267,16296116,RL_myo,-0.3552193248353082,-0.5975863246499147,0.6041780234612915,0.3894595381055158,-12.5,3.0,11.375,-0.08642578125,0.9033203125,-0.470703125
1969/12/31/18:00:14.796000,98,1730348267,37459541,RL_myo,-0.3572926977821203,-0.5958743779376223,0.604174994080152,0.3901899926411164,-16.4375,1.4375,10.6875,-0.0595703125,0.90478515625,-0.49462890625
1969/12/31/18:00:14.814000,99,1730348267,55255801,RL_myo,-0.3602290620902721,-0.593444115673283,0.6048576762647573,0.3901362529449372,-15.4375,2.625,15.625,-0.00048828125,0.86083984375,-0.45263671875
1969/12/31/18:00:14.835000,100,1730348267,76367011,RL_myo,-0.3637175567805654,-0.5912012510448996,0.605666943435736,0.3890477776337178,-12.1875,8.3125,18.875,0.00732421875,0.88037109375,-0.44091796875
1969/12/31/18:00:14.857000,101,1730348267,97491959,RL_myo,-0.3659058278293693,-0.5900269620728129,0.6067505979068826,0.3870850308747056,-2.6875,10.125,18.3125,-0.0380859375,0.85400390625,-0.44287109375
1969/12/31/18:00:14.874000,102,1730348267,115212028,RL_myo,-0.3675533864270369,-0.5892939133100368,0.6085199705542275,0.3838497587578272,3.125,11.0,18.5,-0.00048828125,0.87060546875,-0.49658203125
1969/12/31/18:00:14.895000,103,1730348267,136460848,RL_myo,-0.3697491184238067,-0.5884980191222093,0.6104095301017647,0.379941938294519,5.0,14.375,20.625,0.02978515625,0.87646484375,-0.4833984375
1969/12/31/18:00:14.917000,104,1730348267,157572068,RL_myo,-0.3731736483216564,-0.5870435311674339,0.6117630809826565,0.3766526960734284,-1.6875,16.3125,23.1875,0.0322265625,0.89306640625,-0.458984375
1969/12/31/18:00:14.934000,105,1730348267,175457235,RL_myo,-0.3770139220958962,-0.5848995330168324,0.613036722281234,0.3740842364458067,-6.875,15.25,26.625,0.0048828125,0.87451171875,-0.443359375
1969/12/31/18:00:14.955000,106,1730348267,196321705,RL_myo,-0.3810983841462594,-0.5829999624223366,0.6140664386443812,0.3712108219694986,-9.625,18.0625,24.75,0.0380859375,0.8876953125,-0.49072265625
1969/12/31/18:00:14.976000,107,1730348267,217418733,RL_myo,-0.3849579158606666,-0.5813737353056682,0.6148828356398216,0.3684169938377966,-7.75,18.0,23.125,0.03564453125,0.87548828125,-0.462890625
1969/12/31/18:00:14.994000,108,1730348267,235296594,RL_myo,-0.3892800251938126,-0.5789762180916442,0.6155971047514573,0.3664530058425292,-12.75,15.875,25.875,0.02734375,0.8466796875,-0.4267578125
1969/12/31/18:00:15.017000,109,1730348267,257899347,RL_myo,-0.3938538748682681,-0.5758579434963753,0.6166288079643751,0.3647405479951604,-14.3125,13.6875,29.5625,0.03271484375,0.86181640625,-0.4111328125
1969/12/31/18:00:15.036000,110,1730348267,277528246,RL_myo,-0.4006306725591163,-0.577264610156021,0.6130918808434375,0.3610802953777776,22.9375,40.375,-2.3125,0.29833984375,2.15087890625,-0.43212890625
1969/12/31/18:00:15.054000,111,1730348267,295295802,RL_myo,-0.4031380608090396,-0.5838025059255811,0.6019299857227476,0.3665168895016324,-39.75,30.75,-66.5625,0.05322265625,1.0322265625,-0.52783203125
1969/12/31/18:00:15.077000,112,1730348267,317783822,RL_myo,-0.402592055514161,-0.5840514522763808,0.6024232243670057,0.3659095471205875,-9.1875,7.125,17.0625,-0.19287109375,0.88232421875,-0.62451171875
1969/12/31/18:00:15.096000,113,1730348267,337457943,RL_myo,-0.4061387824729484,-0.5808260676303842,0.6028603478336807,0.3664038339622947,-24.1875,3.625,19.6875,0.064453125,1.12158203125,-0.5537109375
1969/12/31/18:00:15.114000,114,1730348267,355322587,RL_myo,-0.4072258092931384,-0.5815418931272517,0.5991199856147252,0.3701775379740534,-21.0625,0.9375,-22.3125,0.07666015625,0.9736328125,-0.39453125
1969/12/31/18:00:15.137000,115,1730348267,377761983,RL_myo,-0.4095577191346142,-0.5810714584443408,0.5962696510023914,0.3729355683923238,-20.9375,4.1875,-9.375,0.0498046875,0.8818359375,-0.31494140625
1969/12/31/18:00:15.156000,116,1730348267,397517946,RL_myo,-0.4133318758234919,-0.5792261520326253,0.5945460428819602,0.3743912767721942,-20.5625,8.25,6.0625,0.0380859375,0.8095703125,-0.251953125
1969/12/31/18:00:15.174000,117,1730348267,415314582,RL_myo,-0.4165213519619153,-0.5786375170865998,0.5917606253327621,0.3761754238190627,-26.25,11.75,-1.0,-0.0048828125,0.837890625,-0.36962890625
1969/12/31/18:00:15.210000,118,1730348267,451284637,RL_myo,-0.4179063160412142,-0.5793437639642478,0.5884990067576146,0.3786608419336487,-29.9375,6.5625,-15.6875,0.04833984375,0.947265625,-0.54443359375
1969/12/31/18:00:15.216000,119,1730348267,457400545,RL_myo,-0.4201058396635272,-0.5794079232784926,0.5823986520513406,0.3854988352920003,-56.0625,-1.875,-37.1875,0.1220703125,0.96337890625,-0.5546875
1969/12/31/18:00:15.234000,120,1730348267,475350083,RL_myo,-0.4303661021548488,-0.5745335583014596,0.5692844468583569,0.4007635550629325,-132.1875,3.0625,-45.875,0.2890625,0.923828125,-0.67822265625
1969/12/31/18:00:15.257000,121,1730348267,497788012,RL_myo,-0.4470795074829249,-0.567745198444528,0.5485802884991848,0.4205293933866693,-189.1875,22.0625,-66.25,0.6171875,0.931640625,-0.5439453125
1969/12/31/18:00:15.279000,122,1730348267,520292249,RL_myo,-0.470637617294278,-0.5613349975691188,0.5156200999743302,0.4444537840924565,-252.1875,61.6875,-108.625,0.99072265625,0.85205078125,-0.37158203125
1969/12/31/18:00:15.294000,123,1730348267,535266102,RL_myo,-0.4976196159298075,-0.5568237159484404,0.4715576048906774,0.4689941283950252,-286.8125,105.9375,-145.5625,1.09619140625,0.64501953125,-0.18408203125
1969/12/31/18:00:15.317000,124,1730348267,557863676,RL_myo,-0.5228420790403447,-0.5554357832438871,0.4248168188326872,0.4875017143702116,-262.0625,138.5625,-147.375,0.95068359375,0.42041015625,-0.0537109375
1969/12/31/18:00:15.336000,125,1730348267,577413501,RL_myo,-0.5400908194205886,-0.5613917230230053,0.381158002856998,0.497855216862215,-183.0625,157.375,-149.8125,0.72412109375,0.33642578125,0.14599609375
1969/12/31/18:00:15.354000,126,1730348267,595315642,RL_myo,-0.5462727662110903,-0.5755090405144548,0.3405201969487902,0.5044020268121174,-102.625,160.125,-171.875,0.36572265625,0.29345703125,0.27197265625
1969/12/31/18:00:15.376000,127,1730348267,616840630,RL_myo,-0.543643786197122,-0.592472238982313,0.3035298696259444,0.5111728650949698,-55.4375,138.375,-185.125,-0.044921875,0.38427734375,0.2216796875
1969/12/31/18:00:15.397000,128,1730348267,638123227,RL_myo,-0.535094176293182,-0.6086413968285173,0.2736811094443513,0.5180043657123572,-17.5625,102.6875,-174.1875,-0.30126953125,0.50390625,0.20166015625
1969/12/31/18:00:15.413000,129,1730348267,654498442,RL_myo,-0.524033373445919,-0.6204662560506886,0.2527395992825006,0.5258643775460096,2.3125,55.1875,-146.0625,-0.388671875,0.56640625,0.19384765625
1969/12/31/18:00:15.436000,130,1730348267,677004277,RL_myo,-0.5169554888461452,-0.6259616875567964,0.2378483518339348,0.5332514883174464,-10.875,25.4375,-101.6875,-0.4638671875,0.58349609375,0.25830078125
1969/12/31/18:00:15.457000,131,1730348267,698086534,RL_myo,-0.515561764781395,-0.6254245772126146,0.2261342889209268,0.5402808975784195,-27.4375,10.125,-41.5,-0.6513671875,0.50830078125,0.30224609375
1969/12/31/18:00:15.473000,132,1730348267,714438020,RL_myo,-0.5215463204110575,-0.6162730482376182,0.2205814396682928,0.5473032013020425,-64.5625,-29.375,24.0625,-0.8916015625,0.677734375,0.27099609375
1969/12/31/18:00:15.496000,133,1730348267,737052472,RL_myo,-0.5384362855529807,-0.5918404739296366,0.2226496905120464,0.5569904264289846,-139.5625,-97.8125,70.5,-0.94677734375,0.87744140625,0.1484375
1969/12/31/18:00:15.517000,134,1730348267,758069682,RL_myo,-0.5552881250459808,-0.5560205340919856,0.2279012814818303,0.5749411011137765,-174.5,-172.625,71.125,-0.955078125,0.84716796875,0.25634765625
1969/12/31/18:00:15.533000,135,1730348267,774488755,RL_myo,-0.5695642009768174,-0.5093852144612642,0.2399225111487215,0.5987992258662189,-184.1875,-252.5,79.0,-0.85546875,0.67529296875,0.4150390625
1969/12/31/18:00:15.562000,136,1730348267,802964254,RL_myo,-0.5784804780211547,-0.4574500087327025,0.2556104918709216,0.6251104722402053,-172.8125,-294.8125,67.4375,-0.537109375,0.61474609375,0.69677734375
1969/12/31/18:00:15.585000,137,1730348267,825652978,RL_myo,-0.5805634292084301,-0.4085672408664036,0.2780137111064338,0.647091408375502,-116.1875,-306.625,70.0625,-0.49267578125,0.65625,0.6630859375
1969/12/31/18:00:15.593000,138,1730348267,834511630,RL_myo,-0.5826537307461228,-0.3587721170464812,0.3034731143169624,0.6630997413393964,-101.375,-308.8125,101.0625,-0.6552734375,0.88330078125,0.65673828125
1969/12/31/18:00:15.616000,139,1730348267,857017833,RL_myo,-0.5827626851744346,-0.3062738954969955,0.3259882175865789,0.6784656481356321,-118.3125,-312.5,94.6875,-0.6162109375,0.95849609375,0.6396484375
1969/12/31/18:00:15.637000,140,1730348267,877954947,RL_myo,-0.5814843499926484,-0.2520762428329629,0.3424086494655985,0.6936063979549131,-143.75,-299.625,80.6875,-0.38720703125,0.88134765625,0.72119140625
1969/12/31/18:00:15.653000,141,1730348267,894441864,RL_myo,-0.5793594450702323,-0.2013597565620202,0.3574303529636831,0.7043013734371482,-125.875,-275.3125,81.5625,-0.17626953125,0.79052734375,0.83740234375
1969/12/31/18:00:15.676000,142,1730348267,916947982,RL_myo,-0.5756903600460285,-0.1586322355555161,0.3746992281936566,0.7092368515410148,-77.0,-247.8125,80.75,-0.125,0.8212890625,0.88525390625
1969/12/31/18:00:15.697000,143,1730348267,938064844,RL_myo,-0.5722782545305376,-0.1248806856622738,0.3949061760678944,0.7077792917593978,-21.625,-215.375,87.125,-0.12255859375,0.76220703125,0.8447265625
1969/12/31/18:00:15.721000,144,1730348267,962051752,RL_myo,-0.5750071796180646,-0.0983267770262925,0.4136926720572382,0.6989684981409697,6.625,-160.1875,117.0625,0.2373046875,1.10107421875,0.97119140625
1969/12/31/18:00:15.736000,145,1730348267,977027755,RL_myo,-0.5780010639238597,-0.0758054193657269,0.4224839878015794,0.6940285214232533,-31.375,-112.625,91.4375,0.19580078125,1.07666015625,0.8095703125
1969/12/31/18:00:15.760000,146,1730348268,1050854,RL_myo,-0.5826515785638642,-0.0612193100041437,0.426215794375808,0.6892818224095661,-41.6875,-67.6875,93.8125,0.23583984375,1.1552734375,0.7236328125
1969/12/31/18:00:15.773000,147,1730348268,13886351,RL_myo,-0.5932159332154797,-0.044984066547979,0.4257311589852836,0.6817802216294792,-43.6875,-37.5625,110.9375,0.14794921875,0.83251953125,0.64892578125
1969/12/31/18:00:15.796000,148,1730348268,37011515,RL_myo,-0.6093948177939768,-0.0286874563665033,0.4168226372911726,0.6738500389068012,-76.8125,4.6875,132.375,0.13330078125,0.74853515625,0.64501953125
1969/12/31/18:00:15.817000,149,1730348268,58156478,RL_myo,-0.6256219698283016,-0.0060425926841953,0.4084548509357067,0.6646241589717441,-92.3125,-22.1875,151.1875,0.08203125,0.51708984375,0.576171875
1969/12/31/18:00:15.833000,150,1730348268,73821563,RL_myo,-0.6423436207218601,0.0145876211851505,0.4059509142361356,0.6499120936380052,-48.6875,-34.375,167.0625,0.36572265625,0.59814453125,0.90869140625
1969/12/31/18:00:15.856000,151,1730348268,97146991,RL_myo,-0.6545943584078145,0.0216061914103838,0.4083203969928465,0.6358567856310128,24.0625,-7.8125,107.875,0.91552734375,0.2119140625,1.15625
1969/12/31/18:00:15.878000,152,1730348268,119235033,RL_myo,-0.6611817798369846,0.0131223190865828,0.4135056363330168,0.6258430693666057,99.3125,25.1875,20.5,0.775390625,0.17578125,0.92529296875
1969/12/31/18:00:15.893000,153,1730348268,133758504,RL_myo,-0.6618736867512973,-0.0059815216987852,0.4262749749420011,0.6165850224604947,141.3125,22.0,-10.625,0.53125,0.3125,0.51123046875
1969/12/31/18:00:15.922000,154,1730348268,163068101,RL_myo,-0.662027679196218,-0.0231316023246396,0.4391342446590567,0.6069146530770896,135.5,12.0625,-4.875,0.37255859375,0.31640625,0.4638671875
1969/12/31/18:00:15.938000,155,1730348268,179498819,RL_myo,-0.6663360074943326,-0.0280157760776677,0.4488017461853831,0.5948011718450372,87.875,-0.875,38.6875,0.6982421875,0.41943359375,0.58447265625
1969/12/31/18:00:15.953000,156,1730348268,193809362,RL_myo,-0.6738162194114371,-0.025817414928536,0.4524456190667557,0.5836078523561741,29.1875,11.875,64.8125,0.7890625,0.53125,0.49755859375
1969/12/31/18:00:15.976000,157,1730348268,216931132,RL_myo,-0.6779352779411296,-0.0213628655153862,0.4530758592020352,0.5785063981566604,-7.0,7.1875,37.1875,0.759765625,0.52490234375,0.44775390625
1969/12/31/18:00:15.998000,158,1730348268,239303333,RL_myo,-0.6792737681330943,-0.0180057293197288,0.4530119424102638,0.5770988837899548,-11.8125,3.0,10.875,0.7109375,0.47216796875,0.45654296875
1969/12/31/18:00:16.013000,159,1730348268,253825089,RL_myo,-0.6801278123737131,-0.0155032275278581,0.4511195065291316,0.57764781623484,-12.875,7.1875,-3.125,0.69482421875,0.3935546875,0.546875
1969/12/31/18:00:16.036000,160,1730348268,277036658,RL_myo,-0.6801862577041242,-0.0131227607148588,0.4486763442554753,0.5795377348259745,-17.25,6.0625,-10.25,0.64453125,0.3642578125,0.54150390625
1969/12/31/18:00:16.058000,161,1730348268,299587214,RL_myo,-0.6796389900336602,-0.0103761677867734,0.4448934529281859,0.5831406296166672,-28.125,5.5625,-15.0625,0.59130859375,0.39013671875,0.5576171875
1969/12/31/18:00:16.073000,162,1730348268,313916040,RL_myo,-0.6789091926494157,-0.0075074917464603,0.4405005523106026,0.5873544152535581,-32.9375,4.625,-14.8125,0.546875,0.41943359375,0.5859375
1969/12/31/18:00:16.096000,163,1730348268,337071932,RL_myo,-0.678536439058291,-0.0046997666463513,0.4362848310145421,0.5909498788308333,-31.125,4.9375,-10.5,0.54833984375,0.43701171875,0.59912109375
1969/12/31/18:00:16.096000,1,1730348273,669476601,RL_myo,-0.6587768224606356,0.0211799830810562,0.4370278929693459,0.6120221624027419,-0.9375,0.4375,-0.3125,0.5712890625,0.44873046875,0.572265625
1969/12/31/18:00:16.125000,2,1730348273,698045101,RL_myo,-0.6586347900526083,0.0213624480139387,0.43683154410217,0.6123087956452382,-1.5,-0.0625,-1.8125,0.56494140625,0.45751953125,0.5732421875
1969/12/31/18:00:16.148000,3,1730348273,720583909,RL_myo,-0.6585614448405931,0.021606186420164,0.4365182069972124,0.6126025228790578,-2.125,0.0625,-1.375,0.5546875,0.458984375,0.5791015625
1969/12/31/18:00:16.156000,4,1730348273,729410524,RL_myo,-0.6586669080789637,0.0217907595388925,0.4361203834884807,0.6127659244004,-1.375,0.25,-0.125,0.5546875,0.455078125,0.5869140625
1969/12/31/18:00:16.179000,5,1730348273,751966951,RL_myo,-0.6587014634480991,0.0217898834739595,0.4361028499200026,0.6127412890618482,-0.5,-0.5625,-0.0625,0.560546875,0.458984375,0.58544921875
1969/12/31/18:00:16.200000,6,1730348273,772983698,RL_myo,-0.6584675606910895,0.021851259429682,0.4363537811809973,0.6128118566313069,1.1875,-0.9375,-1.9375,0.57373046875,0.45947265625,0.57763671875
1969/12/31/18:00:16.216000,7,1730348273,789516476,RL_myo,-0.6582070948202167,0.0215455401030727,0.4365260703036155,0.6129797712610753,1.375,-0.1875,-2.8125,0.56494140625,0.46826171875,0.572265625
1969/12/31/18:00:16.239000,8,1730348273,812048183,RL_myo,-0.6580286409776331,0.0213625845786264,0.4367122647430633,0.6130451414506397,1.25,-0.25,-1.375,0.56298828125,0.47119140625,0.5751953125
1969/12/31/18:00:16.262000,9,1730348273,834997034,RL_myo,-0.6578937301023872,0.021545271984984,0.4370089161826785,0.6129721431875197,1.0625,-1.5625,-0.9375,0.5751953125,0.4580078125,0.5771484375
1969/12/31/18:00:16.276000,10,1730348273,849309941,RL_myo,-0.6579059906406228,0.0224001761355514,0.4370170603012208,0.6129225306626899,0.0625,-2.5625,-1.1875,0.58544921875,0.408203125,0.58642578125
1969/12/31/18:00:16.300000,11,1730348273,872565437,RL_myo,-0.6583013108328118,0.0217907805254811,0.4383792317479142,0.6115457425344406,10.1875,-1.4375,4.5625,0.57080078125,0.474609375,0.5634765625
1969/12/31/18:00:16.322000,12,1730348273,894642560,RL_myo,-0.6584562961886732,0.0209963817101319,0.4395812240592162,0.6105430414140988,9.3125,-2.375,3.625,0.5439453125,0.4873046875,0.57275390625
1969/12/31/18:00:16.344000,13,1730348273,917129328,RL_myo,-0.6588826497603811,0.0202639221603007,0.4409234147169053,0.6091383830114501,11.375,-2.5,4.9375,0.5625,0.4814453125,0.5849609375
1969/12/31/18:00:16.359000,14,1730348273,932495231,RL_myo,-0.6592342945286886,0.0194700249934868,0.442805740839333,0.6074159521479038,14.3125,-3.0625,4.5625,0.58544921875,0.4736328125,0.57373046875
1969/12/31/18:00:16.382000,15,1730348273,954592385,RL_myo,-0.6598596016606283,0.0175783521670762,0.4456844705694114,0.6046831073584168,24.0,-1.6875,6.25,0.60986328125,0.4921875,0.568359375
1969/12/31/18:00:16.396000,16,1730348273,968868507,RL_myo,-0.6613187732924256,0.0137329694500042,0.4493427604041382,0.6004664597739625,36.0625,4.375,11.125,0.63037109375,0.548828125,0.57861328125
1969/12/31/18:00:16.419000,17,1730348273,992032733,RL_myo,-0.6641236761773138,0.0076904313204982,0.4533692368941353,0.594421512939147,49.8125,13.1875,18.8125,0.673828125,0.6318359375,0.62646484375
1969/12/31/18:00:16.449000,18,1730348274,22534514,RL_myo,-0.6690107166007742,-0.0015869244258388,0.4570342346416017,0.5861244331281119,68.125,29.25,26.125,0.75732421875,0.71728515625,0.73681640625
1969/12/31/18:00:16.456000,19,1730348274,28791706,RL_myo,-0.6753261502661435,-0.0177621031930086,0.4607770343780836,0.5755898045019643,98.0625,55.125,24.75,0.841796875,0.90234375,0.83544921875
1969/12/31/18:00:16.479000,20,1730348274,52022382,RL_myo,-0.6828192412521763,-0.0391856577173413,0.4579594857526663,0.5678868526513138,84.0625,97.0,11.8125,0.830078125,1.158203125,0.94482421875
1969/12/31/18:00:16.501000,21,1730348274,74584498,RL_myo,-0.6862758378354141,-0.06079070922128,0.450009938843873,0.5681734057639514,52.5625,108.5,-41.875,0.60498046875,1.33154296875,0.83203125
1969/12/31/18:00:16.516000,22,1730348274,88914848,RL_myo,-0.6856064568845164,-0.0868528432428262,0.4379873528534933,0.5749499531605221,38.625,126.875,-92.8125,0.443359375,1.40234375,0.68017578125
1969/12/31/18:00:16.539000,23,1730348274,112001312,RL_myo,-0.6795133632858633,-0.1184708019525609,0.4226129998555032,0.5878983845476902,35.75,141.3125,-149.6875,0.18505859375,1.3623046875,0.50634765625
1969/12/31/18:00:16.561000,24,1730348274,134545281,RL_myo,-0.66871463172703,-0.1525299255828631,0.4021077029771517,0.6065185556290158,20.375,152.4375,-198.3125,-0.0009765625,1.1279296875,0.58349609375
1969/12/31/18:00:16.583000,25,1730348274,155582487,RL_myo,-0.6522717524346602,-0.1915251014447425,0.3848201926733913,0.6243181206750388,61.9375,146.6875,-228.625,0.11181640625,0.78857421875,0.62646484375
1969/12/31/18:00:16.599000,26,1730348274,171885937,RL_myo,-0.6348097055874499,-0.2400448583862552,0.3705955708419379,0.6340773032735331,131.875,177.0625,-222.0625,0.12451171875,0.51025390625,0.671875
1969/12/31/18:00:16.621000,27,1730348274,194402355,RL_myo,-0.6161304514292868,-0.2978421597795859,0.3586312563247636,0.6348676528744369,192.1875,209.375,-205.5625,-0.30322265625,0.69189453125,0.5556640625
1969/12/31/18:00:16.643000,28,1730348274,215595653,RL_myo,-0.5967462780918572,-0.3544954876912659,0.3461946291640599,0.631170426689976,197.25,212.125,-188.25,-0.5380859375,0.8642578125,0.5947265625
1969/12/31/18:00:16.659000,29,1730348274,232172955,RL_myo,-0.5790867627636723,-0.4061175505300881,0.3296424542249783,0.6253502288444969,165.6875,217.75,-175.0,-0.49169921875,0.97314453125,0.587890625
1969/12/31/18:00:16.681000,30,1730348274,254569469,RL_myo,-0.562260621431977,-0.4539223015186293,0.3090846490372917,0.6182913694209647,141.3125,222.375,-169.25,-0.57470703125,0.75390625,0.56591796875
1969/12/31/18:00:16.702000,31,1730348274,275545916,RL_myo,-0.5446209091423239,-0.5002480075457231,0.2896140551249946,0.607670712924014,149.6875,221.8125,-154.25,-0.66015625,0.62451171875,0.50439453125
1969/12/31/18:00:16.719000,32,1730348274,292163402,RL_myo,-0.5255644756503297,-0.5434474615248561,0.2735547532069188,0.5946550558891143,158.9375,205.375,-135.9375,-0.728515625,0.54931640625,0.38037109375
1969/12/31/18:00:16.742000,33,1730348274,314609429,RL_myo,-0.5069540871954878,-0.5804398470056694,0.2622050034423087,0.5808060551110358,157.5,174.5,-107.375,-0.7734375,0.52197265625,0.4140625
1969/12/31/18:00:16.762000,34,1730348274,335586980,RL_myo,-0.4893757873099076,-0.6097361081598874,0.2564675802290136,0.5682935838915627,148.125,130.3125,-76.8125,-0.76220703125,0.42822265625,0.36083984375
1969/12/31/18:00:16.779000,35,1730348274,351955940,RL_myo,-0.4750859427543367,-0.6296231481826488,0.2568906388814239,0.5584579106117911,125.6875,77.875,-38.0625,-0.73828125,0.33642578125,0.2958984375
1969/12/31/18:00:16.802000,36,1730348274,374627075,RL_myo,-0.464093658406508,-0.6413940368482369,0.2648824930936671,0.5505161492407552,111.6875,29.0625,7.1875,-0.75,0.27197265625,0.185546875
1969/12/31/18:00:16.830000,37,1730348274,403134433,RL_myo,-0.4539130485347052,-0.6450118457596834,0.2774625142717185,0.548577447926574,91.3125,-30.3125,48.3125,-0.7275390625,0.33544921875,0.03955078125
1969/12/31/18:00:16.839000,38,1730348274,412134696,RL_myo,-0.4476883322834218,-0.6382381582396376,0.2998016480131108,0.5498601479947304,74.6875,-93.625,81.25,-0.48388671875,0.65185546875,0.02197265625
1969/12/31/18:00:16.862000,39,1730348274,434717923,RL_myo,-0.4373062330642502,-0.6312101971180007,0.3275066638691928,0.5505236876817218,104.6875,-114.4375,77.9375,-0.2431640625,0.6513671875,-0.0947265625
1969/12/31/18:00:16.883000,40,1730348274,455629753,RL_myo,-0.4238315346385561,-0.622929816031265,0.3565702513477023,0.5524336434351342,116.625,-131.125,72.625,-0.1328125,0.46044921875,0.01220703125
1969/12/31/18:00:16.914000,41,1730348274,486993842,RL_myo,-0.4126500660355303,-0.6114374148120016,0.3901895980128894,0.5510138731206579,122.8125,-135.375,106.4375,0.12890625,0.513671875,0.0498046875
1969/12/31/18:00:16.922000,42,1730348274,494585726,RL_myo,-0.4058919769794656,-0.5969969062911509,0.424691184334304,0.5463367046531122,110.4375,-126.125,131.375,0.46044921875,0.72216796875,0.01953125
1969/12/31/18:00:16.943000,43,1730348274,515686101,RL_myo,-0.4041691811331003,-0.5804972941342369,0.4523252493774398,0.5432053325407117,61.6875,-110.5,125.125,0.46875,0.8486328125,-0.08349609375
1969/12/31/18:00:16.959000,44,1730348274,532093452,RL_myo,-0.4032516663697088,-0.5648086757356267,0.4772859135781933,0.5390523259236065,53.375,-96.6875,121.75,0.330078125,0.74853515625,-0.19189453125
1969/12/31/18:00:16.982000,45,1730348274,554630577,RL_myo,-0.4007682693272292,-0.5509190373054479,0.5024557406490635,0.532363820449603,68.8125,-87.6875,119.375,0.333984375,0.7236328125,-0.2841796875
1969/12/31/18:00:17.002000,46,1730348274,575588955,RL_myo,-0.4007057627407783,-0.5365123616894808,0.5236946602156707,0.5266244205525416,37.875,-80.625,88.6875,0.3447265625,0.8671875,-0.271484375
1969/12/31/18:00:17.019000,47,1730348274,591966275,RL_myo,-0.4031307118897017,-0.5227576907396358,0.5352696961805729,0.5269690486685367,-17.5,-67.0625,55.375,0.2841796875,0.94970703125,-0.29443359375
1969/12/31/18:00:17.041000,48,1730348274,614593665,RL_myo,-0.404848952893022,-0.5111729203194723,0.545413876534305,0.5266149201810635,-19.625,-56.4375,52.0,0.1953125,0.919921875,-0.39306640625
1969/12/31/18:00:17.062000,49,1730348274,635599931,RL_myo,-0.4034483052779576,-0.5021436017430798,0.5578084813820355,0.5233841479211024,7.75,-54.75,54.4375,0.12451171875,0.8427734375,-0.439453125
1969/12/31/18:00:17.078000,50,1730348274,651354220,RL_myo,-0.4013061598186598,-0.4947509857779553,0.5686035262160661,0.520446787037827,16.4375,-48.1875,41.0625,0.14501953125,0.90478515625,-0.3310546875
1969/12/31/18:00:17.101000,51,1730348274,674417091,RL_myo,-0.3998980808918945,-0.4906563907646428,0.5781798718389677,0.5148260549943727,32.5,-25.625,33.875,0.1728515625,1.0302734375,-0.287109375
1969/12/31/18:00:17.123000,52,1730348274,695628965,RL_myo,-0.3983853227989143,-0.4881700339736046,0.5868660761010512,0.5084951929274943,34.4375,-16.0,35.5625,0.06982421875,1.08740234375,-0.337890625
1969/12/31/18:00:17.138000,53,1730348274,711316209,RL_myo,-0.3989831080353693,-0.4836991175126666,0.5910589594943424,0.5074415726183357,-6.5,-18.3125,27.4375,0.02490234375,1.15380859375,-0.34375
1969/12/31/18:00:17.161000,54,1730348274,734522287,RL_myo,-0.4005781699965133,-0.479131286678749,0.5929020788276902,0.5083674505410574,-26.4375,-15.625,19.875,0.03564453125,1.1103515625,-0.37841796875
1969/12/31/18:00:17.182000,55,1730348274,755642176,RL_myo,-0.4033823740128873,-0.4738171235379095,0.5930190869888354,0.5109876282699187,-32.5625,-14.0,17.1875,0.03369140625,1.1884765625,-0.2412109375
1969/12/31/18:00:17.198000,56,1730348274,771425000,RL_myo,-0.4063695088958662,-0.4699677408378146,0.5904503798525998,0.5151334717754747,-35.0625,-7.3125,-0.125,0.0751953125,1.0888671875,-0.09912109375
1969/12/31/18:00:17.221000,57,1730348274,794468668,RL_myo,-0.4079652543127167,-0.4692454929916466,0.587289299371179,0.5181354045273268,-25.5,3.0625,-3.625,-0.0732421875,0.99462890625,-0.13427734375
1969/12/31/18:00:17.251000,58,1730348274,824498276,RL_myo,-0.4054069187308947,-0.4716319272860018,0.5899824264457737,0.5149070711252376,31.4375,1.75,5.75,-0.10498046875,0.94140625,-0.13232421875
1969/12/31/18:00:17.258000,59,1730348274,831326909,RL_myo,-0.4038146502151098,-0.4732736997835493,0.5924161116970762,0.5118484970834207,31.8125,2.25,5.75,-0.03857421875,0.9638671875,-0.05615234375
1969/12/31/18:00:17.282000,60,1730348274,854627134,RL_myo,-0.4004417467762197,-0.476001399650623,0.5959935462993119,0.5077999288489785,38.6875,0.0625,3.0625,-0.05126953125,0.8681640625,-0.158203125
1969/12/31/18:00:17.304000,61,1730348274,877603090,RL_myo,-0.3961083616491849,-0.4783206826262962,0.601303479039718,0.5027341409713924,48.75,-5.4375,11.9375,-0.09716796875,0.88671875,-0.1787109375
1969/12/31/18:00:17.326000,62,1730348274,899648982,RL_myo,-0.3922171639118394,-0.4804141452147663,0.6056599622622444,0.4985418292611118,42.0,-4.6875,8.875,-0.0859375,0.94873046875,-0.19287109375
1969/12/31/18:00:17.342000,63,1730348274,914752269,RL_myo,-0.3877086691471815,-0.483720277549026,0.6100063664132449,0.4935472762474984,47.8125,-1.5,2.875,-0.0654296875,0.9736328125,-0.23779296875
1969/12/31/18:00:17.364000,64,1730348274,937218569,RL_myo,-0.3823405924826675,-0.4873865949830938,0.615260723535327,0.4875697082936698,52.4375,-1.6875,7.75,-0.12109375,1.001953125,-0.33056640625
1969/12/31/18:00:17.385000,65,1730348274,958161515,RL_myo,-0.3774382264429571,-0.4893147253223135,0.6193185128907965,0.4843098846741372,40.875,-10.1875,3.8125,-0.091796875,1.1298828125,-0.28515625
1969/12/31/18:00:17.402000,66,1730348274,974693737,RL_myo,-0.3742100545747219,-0.4898727610531264,0.6220151143648656,0.4827926164876937,16.625,-11.0625,3.0,-0.05517578125,1.0654296875,-0.373046875
1969/12/31/18:00:17.424000,67,1730348274,997195531,RL_myo,-0.3725591836041896,-0.4880989173136803,0.6246347780152813,0.4824836740483485,5.6875,-14.5625,12.3125,-0.044921875,0.9482421875,-0.3046875
1969/12/31/18:00:17.447000,68,1730348275,19662445,RL_myo,-0.3720688890143556,-0.4849834960807201,0.6272559009843394,0.4826031340939156,-3.25,-16.625,16.4375,0.00341796875,0.96240234375,-0.3232421875
1969/12/31/18:00:17.461000,69,1730348275,34597623,RL_myo,-0.3710289594509409,-0.4828442339556496,0.6297543680892924,0.4822949231092837,5.875,-14.4375,10.6875,0.02734375,0.97314453125,-0.26904296875
1969/12/31/18:00:17.484000,70,1730348275,57136244,RL_myo,-0.3702416749695443,-0.4811432779071741,0.6320231691905097,0.4816315623449843,6.75,-10.875,10.75,0.01708984375,0.92919921875,-0.26220703125
1969/12/31/18:00:17.505000,71,1730348275,78163244,RL_myo,-0.3701178479440783,-0.4796761489103746,0.634461581361922,0.4799813252361861,10.4375,-4.8125,16.5,-0.0087890625,0.97265625,-0.25390625
1969/12/31/18:00:17.535000,72,1730348275,108179146,RL_myo,-0.3700603473932293,-0.4785210495733,0.6362376812183774,0.4788262288140992,7.8125,-3.4375,14.0625,-0.02880859375,1.0390625,-0.27685546875
1969/12/31/18:00:17.544000,73,1730348275,117142832,RL_myo,-0.3705467512828898,-0.4771758361933178,0.6373330879420088,0.4783355114155835,1.8125,-1.9375,12.875,-0.0205078125,1.0322265625,-0.27001953125
1969/12/31/18:00:17.565000,74,1730348275,138167569,RL_myo,-0.3714617591937053,-0.4758323816421503,0.6377594350665506,0.4783958706145683,-3.3125,0.0625,13.9375,-0.0634765625,1.04638671875,-0.27490234375
1969/12/31/18:00:17.582000,75,1730348275,154648143,RL_myo,-0.3713403398552533,-0.4745514698183094,0.6380046963357927,0.4794343145238354,-8.5625,-5.1875,10.875,-0.09619140625,1.052734375,-0.3271484375
1969/12/31/18:00:17.604000,76,1730348275,177180195,RL_myo,-0.3695755983320267,-0.4735816791838472,0.6381359010010469,0.4815774518314931,-4.875,-12.625,2.9375,-0.1064453125,1.17626953125,-0.32470703125
1969/12/31/18:00:17.618000,77,1730348275,191405443,RL_myo,-0.3672577414971503,-0.4732784656089252,0.6377112985145797,0.4842040324575192,-3.875,-15.3125,-10.0625,-0.01708984375,1.24609375,-0.3203125
1969/12/31/18:00:17.641000,78,1730348275,214508980,RL_myo,-0.3646163830695061,-0.4744773622334015,0.6364002387455205,0.4867451715733698,1.5625,-10.1875,-19.25,-0.0166015625,1.27880859375,-0.271484375
1969/12/31/18:00:17.664000,79,1730348275,237088929,RL_myo,-0.3617060880023806,-0.4777376899754696,0.6340538039434238,0.4887854122043645,5.25,-2.625,-31.875,0.0068359375,1.2744140625,-0.27880859375
1969/12/31/18:00:17.685000,80,1730348275,258086860,RL_myo,-0.358281675341644,-0.4835887076204166,0.6303804332075809,0.490302674279289,11.3125,6.375,-47.6875,0.0224609375,1.29736328125,-0.26953125
1969/12/31/18:00:17.701000,81,1730348275,274628511,RL_myo,-0.3532250885313107,-0.4919637486715681,0.6253921301350976,0.4920247863575075,15.25,10.6875,-63.5,-0.03125,1.24365234375,-0.27978515625
1969/12/31/18:00:17.724000,82,1730348275,297101073,RL_myo,-0.3475361495381224,-0.5006742245629116,0.6193882763457792,0.4948758518537227,13.1875,8.5,-70.3125,-0.07275390625,1.1875,-0.236328125
1969/12/31/18:00:17.745000,83,1730348275,318158326,RL_myo,-0.3423633600352175,-0.5083262724858782,0.6127016238248374,0.4989874252608135,0.4375,4.5,-71.6875,-0.064453125,1.080078125,-0.24072265625
1969/12/31/18:00:17.762000,84,1730348275,334639055,RL_myo,-0.3375889057958789,-0.5150809575142691,0.6061463430589177,0.5033010517434131,-5.375,2.0625,-67.5,-0.06298828125,0.8798828125,-0.2265625
1969/12/31/18:00:17.784000,85,1730348275,357025190,RL_myo,-0.3328356320518441,-0.5213794184828263,0.6003004660241861,0.5069746487846354,-1.8125,1.9375,-62.375,-0.0732421875,0.80859375,-0.19677734375
1969/12/31/18:00:17.805000,86,1730348275,378014926,RL_myo,-0.3275104867995797,-0.5281304961380475,0.5952072805198474,0.5094539756459359,5.25,3.375,-58.1875,-0.1201171875,0.740234375,-0.2109375
1969/12/31/18:00:17.821000,87,1730348275,394286346,RL_myo,-0.3220337782209147,-0.5346883808216856,0.5915753181419836,0.5103344237500129,13.6875,4.625,-50.3125,-0.13134765625,0.68896484375,-0.22021484375
1969/12/31/18:00:17.844000,88,1730348275,417021306,RL_myo,-0.3174389312336718,-0.5407631091579181,0.5885528963442217,0.5103070378859316,15.1875,7.625,-43.4375,-0.13525390625,0.7158203125,-0.22900390625
1969/12/31/18:00:17.865000,89,1730348275,437938970,RL_myo,-0.3130525054277342,-0.5466364278827818,0.5858824331450225,0.5098318537410536,13.4375,8.875,-36.5,-0.1923828125,0.6728515625,-0.27490234375
1969/12/31/18:00:17.881000,90,1730348275,454470501,RL_myo,-0.3093233590763565,-0.5516917605941568,0.5839790646492856,0.5088454705247799,12.8125,8.6875,-28.375,-0.1943359375,0.658203125,-0.291015625
1969/12/31/18:00:17.904000,91,1730348275,477080863,RL_myo,-0.3068243756985001,-0.5560924780165177,0.5823376503957409,0.5074473561880505,12.0,11.375,-23.0625,-0.1845703125,0.7021484375,-0.279296875
1969/12/31/18:00:17.925000,92,1730348275,498098395,RL_myo,-0.3050591079090486,-0.5601295384716566,0.580820822501502,0.5058072883638028,9.375,13.8125,-17.3125,-0.20849609375,0.7080078125,-0.2958984375
1969/12/31/18:00:17.942000,93,1730348275,514955576,RL_myo,-0.3043947532281586,-0.5631943830030518,0.5793083222154508,0.5045372027639782,2.875,14.25,-9.25,-0.25830078125,0.7333984375,-0.30859375
1969/12/31/18:00:17.964000,94,1730348275,536958712,RL_myo,-0.3046256483425935,-0.5654892069513383,0.5778182754677085,0.5035386894062105,-0.5625,14.25,-4.375,-0.265625,0.775390625,-0.30322265625
1969/12/31/18:00:17.985000,95,1730348275,557977764,RL_myo,-0.3051807852992387,-0.5675141883424644,0.576486503430262,0.5024496449166667,-0.875,14.875,-1.625,-0.2861328125,0.81103515625,-0.30615234375
1969/12/31/18:00:18.002000,96,1730348275,575136881,RL_myo,-0.3058492245514184,-0.5693397658382819,0.575504358071308,0.5011020023083506,-2.5,14.9375,2.75,-0.30712890625,0.79931640625,-0.34765625
1969/12/31/18:00:18.024000,97,1730348275,597051202,RL_myo,-0.3076292924520822,-0.570518054870955,0.5749127590488419,0.4993482622123978,-4.6875,16.4375,7.125,-0.25830078125,0.7919921875,-0.34326171875
1969/12/31/18:00:18.045000,98,1730348275,618226668,RL_myo,-0.3105457424233576,-0.5715921536546275,0.5740945859343755,0.497251604466017,-5.625,21.0625,8.1875,-0.22265625,0.810546875,-0.31298828125
1969/12/31/18:00:18.061000,99,1730348275,634021753,RL_myo,-0.3127499224090432,-0.5728255311883043,0.5735579666037821,0.4950653045784055,-3.0625,20.5625,10.9375,-0.28466796875,0.81689453125,-0.33447265625
1969/12/31/18:00:18.084000,100,1730348275,657577573,RL_myo,-0.314509104580138,-0.5736602122935606,0.5737212464687168,0.492789930211534,0.5625,16.375,13.0,-0.28662109375,0.8642578125,-0.34228515625
1969/12/31/18:00:18.105000,101,1730348275,678112449,RL_myo,-0.3168955175825096,-0.5738543251754151,0.5736712191367503,0.4910903956989353,-4.8125,14.625,12.5625,-0.24853515625,0.8994140625,-0.349609375
1969/12/31/18:00:18.121000,102,1730348275,693906890,RL_myo,-0.3202523053364648,-0.5728774800625231,0.5736709391761832,0.4900525556597058,-10.9375,12.625,17.0625,-0.22216796875,0.87158203125,-0.318359375
1969/12/31/18:00:18.144000,103,1730348275,717007707,RL_myo,-0.3241605315645221,-0.5715992050652889,0.5741016682161354,0.4884685999079026,-11.5625,13.5625,21.375,-0.19384765625,0.82958984375,-0.3193359375
1969/12/31/18:00:18.166000,104,1730348275,739610226,RL_myo,-0.327583950317201,-0.5708762227160017,0.5751487914736324,0.4857910677426127,-2.4375,16.0625,21.75,-0.1767578125,0.8251953125,-0.30224609375
1969/12/31/18:00:18.181000,105,1730348275,753945949,RL_myo,-0.3304519351692911,-0.5702645789225502,0.5767344542694185,0.482677115500324,1.8125,15.25,23.75,-0.201171875,0.8642578125,-0.3291015625
1969/12/31/18:00:18.194000,106,1730348275,767507915,RL_myo,-0.333005833839152,-0.569454624215412,0.5786708780478372,0.479550373254072,2.375,13.3125,24.375,-0.19091796875,0.8935546875,-0.3564453125
1969/12/31/18:00:18.209000,107,1730348275,782428923,RL_myo,-0.335996810963677,-0.5681733539075149,0.5808686012609108,0.4763159151245296,0.0625,12.125,26.8125,-0.15673828125,0.87744140625,-0.37158203125
1969/12/31/18:00:18.232000,108,1730348275,804945019,RL_myo,-0.3399143102439717,-0.5663610854289484,0.5830851868846582,0.4729746794901304,-3.9375,14.0,30.375,-0.1298828125,0.880859375,-0.3720703125
1969/12/31/18:00:18.254000,109,1730348275,827422159,RL_myo,-0.3442458931136464,-0.5641604237676301,0.5855842373284262,0.4693707301496349,-2.0625,15.25,34.625,-0.126953125,0.8740234375,-0.33935546875
1969/12/31/18:00:18.269000,110,1730348275,842427681,RL_myo,-0.3478503664260518,-0.5625178061032626,0.5883364944693303,0.4652246872959057,3.0625,15.375,33.25,-0.1220703125,0.8984375,-0.359375
1969/12/31/18:00:18.292000,111,1730348275,864882365,RL_myo,-0.3513153996451587,-0.5607252565219027,0.5911205082632665,0.4612387899788853,2.6875,14.25,33.25,-0.1220703125,0.9384765625,-0.3818359375
1969/12/31/18:00:18.314000,112,1730348275,887441152,RL_myo,-0.3554815049526867,-0.5581865320728572,0.5935271555906466,0.4580242467659617,-3.875,12.6875,34.0625,-0.09326171875,0.97607421875,-0.37744140625
1969/12/31/18:00:18.329000,113,1730348275,902471389,RL_myo,-0.3599353310988027,-0.5554979563049354,0.5954772070883364,0.4552751627379973,-7.125,12.625,32.875,-0.0849609375,0.97314453125,-0.365234375
1969/12/31/18:00:18.352000,114,1730348275,925014388,RL_myo,-0.3634020795768597,-0.5532207674310811,0.5975931745275502,0.4525131034569765,-3.8125,11.3125,31.875,-0.1083984375,0.978515625,-0.3818359375
1969/12/31/18:00:18.374000,115,1730348275,947519476,RL_myo,-0.3660261944067624,-0.5512670648460694,0.6002780760364362,0.4492167401757164,0.5625,9.1875,31.4375,-0.0966796875,0.9736328125,-0.4169921875
1969/12/31/18:00:18.389000,116,1730348275,962494078,RL_myo,-0.3689495251638303,-0.5488162332958084,0.6026480746844765,0.4466455955581323,-1.25,6.9375,29.3125,-0.05712890625,1.0341796875,-0.3916015625
1969/12/31/18:00:18.412000,117,1730348275,984942451,RL_myo,-0.3717627207265833,-0.5465052374627856,0.6043661895640499,0.4448213279683695,-5.6875,6.3125,26.125,-0.06640625,1.04248046875,-0.40234375
1969/12/31/18:00:18.428000,118,1730348276,1374302,RL_myo,-0.3743938040455058,-0.5439513501228478,0.6060247930172526,0.4434863678178424,-8.0,3.9375,26.3125,-0.07421875,1.0439453125,-0.4072265625
1969/12/31/18:00:18.449000,119,1730348276,22426162,RL_myo,-0.3762193485522799,-0.541746096325444,0.6075417578665468,0.4425643245218336,-4.75,1.625,21.875,-0.068359375,1.05029296875,-0.38037109375
1969/12/31/18:00:18.472000,120,1730348276,44820437,RL_myo,-0.377315896422452,-0.5395458628881391,0.6088201337453831,0.4425618836879973,-5.6875,-3.6875,17.625,-0.07080078125,1.0673828125,-0.376953125
1969/12/31/18:00:18.488000,121,1730348276,61423050,RL_myo,-0.3787249800652008,-0.5369899072705296,0.6101103788447618,0.4426901338296376,-7.4375,-5.125,15.4375,-0.001953125,1.01611328125,-0.34716796875
1969/12/31/18:00:18.512000,122,1730348276,85490692,RL_myo,-0.3807306605681129,-0.5345365702557764,0.6108902182792951,0.4428633653546373,-8.0625,-1.8125,13.8125,0.01708984375,1.00927734375,-0.31005859375
1969/12/31/18:00:18.532000,123,1730348276,105075988,RL_myo,-0.3821361514668584,-0.5328910299404473,0.6116253591837387,0.4426212059475574,-4.3125,-0.3125,12.25,-0.00634765625,0.978515625,-0.31005859375
1969/12/31/18:00:18.550000,124,1730348276,122945102,RL_myo,-0.3829368570805145,-0.5315583500660187,0.61267455712053,0.4420802766710499,-1.1875,-0.75,12.3125,-0.01708984375,0.95068359375,-0.3232421875
1969/12/31/18:00:18.569000,125,1730348276,142522111,RL_myo,-0.3842148901661734,-0.5300273401434551,0.6139503701638663,0.4410384108563573,-0.75,0.5625,13.75,0.017578125,0.93603515625,-0.31689453125
1969/12/31/18:00:18.592000,126,1730348276,164952033,RL_myo,-0.3870249213317479,-0.527894424317661,0.6148087103886922,0.4399425379213435,-4.625,5.0,16.5625,0.05322265625,0.9111328125,-0.26025390625
1969/12/31/18:00:18.607000,127,1730348276,180055108,RL_myo,-0.3913039909940327,-0.5271708891304727,0.6153684038686379,0.4362267389852365,10.375,20.4375,15.5625,0.138671875,1.12744140625,-0.21875
1969/12/31/18:00:18.629000,128,1730348276,202460233,RL_myo,-0.3949553835212382,-0.5294758077649113,0.6124829661003903,0.4342006797048506,8.5625,28.625,-10.4375,0.138671875,1.1787109375,-0.166015625
1969/12/31/18:00:18.652000,129,1730348276,224882535,RL_myo,-0.3936243706391262,-0.5335810587885318,0.6109753372767334,0.4325046193749183,13.5625,18.75,-4.375,-0.1875,1.0966796875,-0.3984375
1969/12/31/18:00:18.667000,130,1730348276,240019632,RL_myo,-0.3925811157801742,-0.5346110063928088,0.610966568557143,0.4321932339613516,10.1875,1.625,0.125,-0.0673828125,1.06103515625,-0.302734375
1969/12/31/18:00:18.689000,131,1730348276,262496214,RL_myo,-0.3924641303640875,-0.5351672620579035,0.6098147941629236,0.4332364537051779,-1.6875,0.9375,-6.1875,-0.01025390625,1.01171875,-0.28857421875
1969/12/31/18:00:18.720000,132,1730348276,293172033,RL_myo,-0.3916563617960945,-0.5361853106402821,0.609060126907157,0.4337699490859971,3.6875,0.8125,-5.875,-0.03857421875,0.93994140625,-0.27392578125
1969/12/31/18:00:18.728000,133,1730348276,301326076,RL_myo,-0.3923922757889082,-0.5366173415361769,0.6083331486682296,0.4335907181839172,-2.0625,5.5625,-1.1875,0.0068359375,0.90869140625,-0.29248046875
1969/12/31/18:00:18.749000,134,1730348276,322487341,RL_myo,-0.3920374852436561,-0.5383419928147356,0.6079846474407689,0.4322605434369567,5.75,9.375,-0.75,-0.0498046875,0.90771484375,-0.3486328125
1969/12/31/18:00:18.772000,135,1730348276,344816784,RL_myo,-0.3908704554908535,-0.5397357023587785,0.6081563426781488,0.4313369002114088,5.75,3.6875,-0.75,-0.05810546875,0.92333984375,-0.3857421875
1969/12/31/18:00:18.788000,136,1730348276,361342889,RL_myo,-0.3894676947968634,-0.5399813032232958,0.6087073060976522,0.431521172576998,-0.4375,-5.5,-0.875,-0.02490234375,1.0185546875,-0.443359375
1969/12/31/18:00:18.809000,137,1730348276,382547547,RL_myo,-0.3889159960658632,-0.5385131565111599,0.6091918638941275,0.4331664821216935,-14.3125,-11.875,1.25,0.013671875,0.9921875,-0.45849609375
1969/12/31/18:00:18.835000,138,1730348276,407788800,RL_myo,-0.3911712693574334,-0.5347248386394873,0.6085157677474818,0.4367641759278816,-38.125,-12.5,3.9375,0.080078125,0.99267578125,-0.44970703125
1969/12/31/18:00:18.857000,139,1730348276,430286397,RL_myo,-0.3959375321467053,-0.5307039990774784,0.6055946036626499,0.4414090076283293,-58.5,-3.3125,-0.8125,0.119140625,1.005859375,-0.4794921875
1969/12/31/18:00:18.869000,140,1730348276,442490985,RL_myo,-0.4016584614508394,-0.5263489699972708,0.6012365147777265,0.4473722112801477,-75.25,-0.75,-2.0,0.0830078125,1.0380859375,-0.541015625
1969/12/31/18:00:18.892000,141,1730348276,464915091,RL_myo,-0.4088731241122483,-0.5220319197689297,0.5949686839597249,0.45422209130368,-92.6875,5.625,-8.6875,0.1220703125,0.9951171875,-0.57080078125
1969/12/31/18:00:18.908000,142,1730348276,481320365,RL_myo,-0.4193143554758047,-0.5160557315208048,0.5830117501462717,0.4668610633237889,-125.125,10.0,-19.5625,0.10693359375,1.14697265625,-0.57177734375
1969/12/31/18:00:18.929000,143,1730348276,502523202,RL_myo,-0.4306157205146054,-0.5111845016739647,0.5655684289565321,0.4831075021790365,-149.6875,17.9375,-47.3125,0.17919921875,1.26513671875,-0.4248046875
1969/12/31/18:00:18.952000,144,1730348276,525049302,RL_myo,-0.4440390872570782,-0.506906476930589,0.5422464950091935,0.5018404639763158,-178.5,33.6875,-68.25,0.23828125,1.24951171875,-0.30517578125
1969/12/31/18:00:18.968000,145,1730348276,541528479,RL_myo,-0.4583201166293303,-0.5034257986361321,0.5148395503753365,0.5210041970366179,-190.9375,48.0,-81.25,0.22119140625,1.06591796875,-0.1650390625
1969/12/31/18:00:18.989000,146,1730348276,562445811,RL_myo,-0.4707609105223551,-0.5028041463610996,0.4864468373996072,0.5375329105368055,-174.375,61.5625,-91.75,0.23388671875,0.90283203125,-0.15966796875
1969/12/31/18:00:19.012000,147,1730348276,584916611,RL_myo,-0.4803399220445917,-0.5071339786872316,0.4570248203646636,0.5506514328699246,-145.5625,81.6875,-109.3125,0.2919921875,0.794921875,-0.07958984375
1969/12/31/18:00:19.028000,148,1730348276,601407337,RL_myo,-0.4862158484591929,-0.5169171504645876,0.4268884815620883,0.560497129851967,-111.875,101.0625,-128.8125,0.2978515625,0.646484375,0.01318359375
1969/12/31/18:00:19.050000,149,1730348276,622576531,RL_myo,-0.4877473910629941,-0.5319992817551066,0.3981449420477926,0.5661800524966004,-68.6875,116.375,-140.25,0.29736328125,0.5498046875,0.09814453125
1969/12/31/18:00:19.072000,150,1730348276,645013732,RL_myo,-0.4854191447491404,-0.550239354949516,0.3701832155040283,0.5697098324014179,-39.1875,122.25,-150.625,0.26025390625,0.4931640625,0.15673828125
1969/12/31/18:00:19.088000,151,1730348276,661408186,RL_myo,-0.4811379652569832,-0.5694554377581699,0.3413680882509586,0.5724461469168141,-30.875,126.5625,-159.8125,0.2216796875,0.4794921875,0.18212890625
