time,.header.seq,.header.stamp.secs,.header.stamp.nsecs,.header.frame_id,.orientation.x,.orientation.y,.orientation.z,.orientation.w,.angular_velocity.x,.angular_velocity.y,.angular_velocity.z,.linear_acceleration.x,.linear_acceleration.y,.linear_acceleration.z
1969/12/31/18:00:07.714,1,1731187160,42731307,RL_myo,0.7379533500070015,0.6658670881080545,0.0433372107944558,-0.100835313003438,159.125,96.5,-227.0625,-0.56982421875,0.87353515625,0.36865234375
1969/12/31/18:00:07.745,2,1731187160,65433100,RL_myo,0.7181556591780894,0.6811064933510369,0.0772111940217816,-0.1199367559310679,130.0,84.625,-212.125,-0.5634765625,0.68310546875,0.3125
1969/12/31/18:00:07.778,3,1731187160,87792835,RL_myo,0.6981416948962317,0.6950288057163306,0.1057771950738913,-0.1354411978470657,126.875,76.8125,-175.8125,-0.67529296875,0.64892578125,0.26611328125
1969/12/31/18:00:07.800,4,1731187160,103255111,RL_myo,0.6799715975192665,0.7066455282298517,0.128059282908027,-0.1479579131406375,113.3125,60.875,-137.75,-0.73779296875,0.564453125,0.22900390625
1969/12/31/18:00:07.831,5,1731187160,125382446,RL_myo,0.6637253349725709,0.7164620178322638,0.1433778565247902,-0.159980145573212,104.5,33.75,-107.6875,-0.701171875,0.40869140625,0.27099609375
1969/12/31/18:00:07.851,6,1731187160,139528851,RL_myo,0.6513855546965269,0.7228597380313876,0.1519207876349002,-0.1734668053267924,95.875,4.1875,-62.25,-0.619140625,0.2705078125,0.24951171875
1969/12/31/18:00:07.894,7,1731187160,168800786,RL_myo,0.6393228721294694,0.733200910828641,0.1472261569196372,-0.1789054170528427,100.125,-17.4375,2.0,-0.50537109375,0.23583984375,0.1142578125
1969/12/31/18:00:07.917,8,1731187160,185399640,RL_myo,0.6316840857412224,0.7417359174729282,0.1322697278772083,-0.1825041469094845,85.6875,-50.25,66.1875,-0.47119140625,0.390625,0.00927734375
1969/12/31/18:00:07.948,9,1731187160,206312501,RL_myo,0.6263194279452016,0.7491295525944313,0.1106023587795249,-0.1851918082434208,67.0,-80.3125,89.9375,-0.40478515625,0.61083984375,-0.212890625
1969/12/31/18:00:07.983,10,1731187160,231007491,RL_myo,0.6159430977474895,0.7581636326549962,0.0869193312052745,-0.1955684952118676,106.9375,-114.375,60.25,-0.3115234375,0.52978515625,-0.21044921875
1969/12/31/18:00:08.005,11,1731187160,246034211,RL_myo,0.6034078771580669,0.7681456740880307,0.0582289211823584,-0.2060595785237339,127.5,-129.5625,75.5625,-0.01513671875,0.4765625,-0.083984375
1969/12/31/18:00:08.034,12,1731187160,266258388,RL_myo,0.5957247874713545,0.7753577843492434,0.0247201371850305,-0.208137451360381,100.375,-115.5,125.3125,0.26806640625,0.70068359375,-0.0673828125
1969/12/31/18:00:08.058,13,1731187160,282801456,RL_myo,0.5922319157761627,0.7789409161223734,-0.0072632791896695,-0.206057399532137,65.6875,-97.1875,137.125,0.2529296875,0.79541015625,-0.1953125
1969/12/31/18:00:08.090,14,1731187160,305393854,RL_myo,0.5928063962183966,0.7787298190850807,-0.0366231299146455,-0.2020376000291281,29.125,-83.875,139.1875,0.1796875,0.697265625,-0.31689453125
1969/12/31/18:00:08.123,15,1731187160,327832689,RL_myo,0.5932320736150726,0.7779952680623228,-0.0656773033449756,-0.1961773726308101,28.125,-75.625,143.75,0.228515625,0.6572265625,-0.296875
1969/12/31/18:00:08.144,16,1731187160,342825458,RL_myo,0.5916332697928705,0.777613520804825,-0.0907012317045502,-0.1925112279920265,33.5625,-71.9375,115.0,0.29638671875,0.74658203125,-0.3095703125
1969/12/31/18:00:08.176,17,1731187160,365214966,RL_myo,0.5885774150879907,0.7782796453164957,-0.1108427445607996,-0.1886035686634751,25.625,-61.0,71.5,0.2744140625,0.7998046875,-0.4189453125
1969/12/31/18:00:08.206,18,1731187160,386204828,RL_myo,0.5828427168116227,0.7810299931219525,-0.1272622331712465,-0.1846370529223121,38.375,-46.6875,57.0,0.197265625,0.8115234375,-0.46484375
1969/12/31/18:00:08.230,19,1731187160,402747738,RL_myo,0.5772495761985711,0.7838068952062865,-0.1402685340070124,-0.1809818117192305,40.875,-34.8125,43.6875,0.16064453125,0.9326171875,-0.41015625
1969/12/31/18:00:08.262,20,1731187160,425253968,RL_myo,0.5725242156554429,0.7863968011199068,-0.1485022832291783,-0.178166117856955,30.625,-20.6875,25.3125,0.091796875,0.99951171875,-0.44482421875
1969/12/31/18:00:08.292,21,1731187160,446277493,RL_myo,0.5672003208539723,0.7897347413676474,-0.1564332747604359,-0.1735841722273428,36.8125,-9.9375,34.75,0.0048828125,1.04248046875,-0.47265625
1969/12/31/18:00:08.317,22,1731187160,462660448,RL_myo,0.5624528662847597,0.7928052393025223,-0.1650431416640249,-0.1669352782733388,36.4375,-2.0625,47.4375,0.0048828125,0.96875,-0.462890625
1969/12/31/18:00:08.348,23,1731187160,485377163,RL_myo,0.5612320430816429,0.7933544421941484,-0.1709026341086025,-0.1624795757132499,14.1875,-1.3125,33.3125,0.01708984375,1.0341796875,-0.38818359375
1969/12/31/18:00:08.378,24,1731187160,506345710,RL_myo,0.5618524380809524,0.7924530367849001,-0.1745069115125956,-0.1608954944901021,-0.5625,-4.375,22.9375,-0.06298828125,1.00537109375,-0.33349609375
1969/12/31/18:00:08.403,25,1731187160,522740083,RL_myo,0.5635965867941196,0.7904024040485,-0.1791375332727681,-0.1597894589806156,-2.625,-9.875,28.1875,-0.05517578125,1.0400390625,-0.24853515625
1969/12/31/18:00:08.434,26,1731187160,545285504,RL_myo,0.5619146366572503,0.7912339164662106,-0.1816487028776859,-0.1587595014062033,4.0625,-3.9375,14.8125,-0.0859375,0.94091796875,-0.4599609375
1969/12/31/18:00:08.464,27,1731187160,566296169,RL_myo,0.5513981573197264,0.7979831203008748,-0.184389399298527,-0.1586932930076697,63.4375,-10.9375,5.3125,-0.1865234375,0.890625,-0.4521484375
1969/12/31/18:00:08.489,28,1731187160,582725367,RL_myo,0.5446292156586007,0.8014100192309118,-0.1904340639756622,-0.1576574318106203,59.375,-19.125,17.25,0.005859375,1.07177734375,-0.23876953125
1969/12/31/18:00:08.520,29,1731187160,605190716,RL_myo,0.5430470022364582,0.80227152943644,-0.1928161717505868,-0.1558276943587364,12.75,-2.9375,6.875,0.0654296875,1.04443359375,-0.43115234375
1969/12/31/18:00:08.551,30,1731187160,626249630,RL_myo,0.5426305116833969,0.8028978347225425,-0.1936745347099458,-0.1529619867579969,9.3125,8.0625,5.3125,0.06103515625,1.009765625,-0.3701171875
1969/12/31/18:00:08.575,31,1731187160,642734704,RL_myo,0.544134703917292,0.8024995050033152,-0.1941550749479423,-0.1490495734117809,-0.625,19.3125,19.25,-0.08056640625,1.05908203125,-0.36962890625
1969/12/31/18:00:08.607,32,1731187160,665371941,RL_myo,0.5413426749108534,0.8046589788420092,-0.1936723765353633,-0.1481993476923612,9.4375,10.0625,11.25,-0.26904296875,0.962890625,-0.54833984375
1969/12/31/18:00:08.637,33,1731187160,686164238,RL_myo,0.5351541746615782,0.8082854396719069,-0.1950676028989968,-0.1491083084737951,33.125,-9.0,3.6875,-0.17236328125,0.908203125,-0.48095703125
1969/12/31/18:00:08.661,34,1731187160,702585715,RL_myo,0.5299136927086504,0.8109229810328414,-0.198488750136896,-0.1489886344047242,33.9375,-13.875,8.0625,-0.0234375,0.951171875,-0.4287109375
1969/12/31/18:00:08.693,35,1731187160,725661169,RL_myo,0.5263338505760246,0.8128479517709519,-0.2011214238255828,-0.1476518131211183,29.3125,-4.375,10.5,-0.02001953125,0.95458984375,-0.37060546875
1969/12/31/18:00:08.723,36,1731187160,746235466,RL_myo,0.5238876099783146,0.8142445202272768,-0.2036221678769262,-0.1452089740345346,20.375,3.0,17.0,-0.05322265625,0.892578125,-0.40087890625
1969/12/31/18:00:08.747,37,1731187160,762677820,RL_myo,0.518617780242233,0.8172639846349888,-0.20684896519253,-0.1425786906726911,35.375,0.5625,18.5625,-0.06884765625,0.74267578125,-0.41015625
1969/12/31/18:00:08.779,38,1731187160,785371228,RL_myo,0.5121006903612523,0.820337697074521,-0.2114933125270249,-0.1416669490260389,43.6875,-11.25,23.0,-0.134765625,0.89501953125,-0.4501953125
1969/12/31/18:00:08.812,39,1731187160,807799034,RL_myo,0.5049679533161314,0.8238308311262934,-0.2147929684176799,-0.1420355889479799,53.6875,-16.5,6.0625,-0.044921875,1.1220703125,-0.4384765625
1969/12/31/18:00:08.832,40,1731187160,822172327,RL_myo,0.500029356941517,0.8265255764581397,-0.2152225967499742,-0.1431968837139647,36.3125,-9.0625,-5.8125,-0.0732421875,1.16357421875,-0.50244140625
1969/12/31/18:00:08.865,41,1731187160,845339452,RL_myo,0.4992781409269411,0.8264945362214805,-0.2179611541870546,-0.1418487040970918,15.9375,-0.125,20.1875,-0.08447265625,1.07080078125,-0.4208984375
1969/12/31/18:00:08.898,42,1731187160,867827962,RL_myo,0.5020862449226157,0.824114816307459,-0.2221728581957599,-0.1392242553693759,-10.1875,2.375,33.4375,-0.02099609375,1.00244140625,-0.4619140625
1969/12/31/18:00:08.918,43,1731187160,882109355,RL_myo,0.5048349919523961,0.822104039004573,-0.2243711075343982,-0.1376378801659597,-12.1875,3.4375,20.4375,-0.0107421875,0.966796875,-0.44287109375
1969/12/31/18:00:08.953,44,1731187160,905768968,RL_myo,0.5054328236909216,0.8215343324332574,-0.2258914237990702,-0.1363527264974663,-5.125,3.0,14.0,-0.03076171875,0.85693359375,-0.4912109375
1969/12/31/18:00:08.986,45,1731187160,929081250,RL_myo,0.5031300996678969,0.8225380593381753,-0.2288897092993586,-0.1337936647424517,16.5625,2.5,21.1875,-0.0322265625,0.87646484375,-0.498046875
1969/12/31/18:00:09.004,46,1731187160,942286478,RL_myo,0.4986657877304032,0.824904298797601,-0.2310220326266311,-0.1322654543466075,31.9375,1.4375,16.5,-0.1220703125,0.91259765625,-0.47119140625
1969/12/31/18:00:09.037,47,1731187160,965086770,RL_myo,0.4951789430063885,0.8266613588165321,-0.2317508254154144,-0.1331178694313981,19.0625,-4.5,5.25,-0.13916015625,0.986328125,-0.56201171875
1969/12/31/18:00:09.080,48,1731187160,995208737,RL_myo,0.4940932834815982,0.826927214899159,-0.2314517271108363,-0.1359900970471897,6.6875,-11.9375,-7.125,-0.0556640625,1.2080078125,-0.57275390625
1969/12/31/18:00:09.091,49,1731187161,2053577,RL_myo,0.4963394696808657,0.8259303619923112,-0.2281501399000339,-0.1394047403776558,-10.25,-7.5,-27.125,0.07568359375,1.27099609375,-0.51025390625
1969/12/31/18:00:09.124,50,1731187161,25151978,RL_myo,0.4992087467151529,0.825443097026009,-0.22155859525321,-0.1426397898365707,-10.125,7.25,-37.125,-0.02685546875,1.3115234375,-0.45263671875
1969/12/31/18:00:09.155,51,1731187161,47722404,RL_myo,0.5004364221194837,0.8266142779319633,-0.2117348394112073,-0.1464260247182145,-0.1875,15.1875,-53.8125,-0.10986328125,1.22900390625,-0.39208984375
1969/12/31/18:00:09.187,52,1731187161,68763807,RL_myo,0.4994068679956939,0.8294353372272654,-0.1991035447814658,-0.1516165558666956,10.6875,15.8125,-74.0625,-0.15087890625,1.23046875,-0.400390625
1969/12/31/18:00:09.210,53,1731187161,85220684,RL_myo,0.4987836727526111,0.8318554424798504,-0.1853043600681507,-0.1577772631015051,10.875,13.25,-86.3125,-0.111328125,1.2578125,-0.31884765625
1969/12/31/18:00:09.241,54,1731187161,107738973,RL_myo,0.5010027653044369,0.832379959850951,-0.170174915895318,-0.1648645795671642,-11.125,15.125,-89.0,-0.17578125,1.1884765625,-0.29248046875
1969/12/31/18:00:09.273,55,1731187161,128825805,RL_myo,0.50429158859769,0.8319407350019987,-0.1536923529519466,-0.1730412313815602,-23.5,16.5625,-92.375,-0.255859375,1.0302734375,-0.2294921875
1969/12/31/18:00:09.296,56,1731187161,145311594,RL_myo,0.5088057493599768,0.8304715721919199,-0.1363570110448882,-0.1812193221988689,-35.625,17.9375,-96.0625,-0.23388671875,0.92578125,-0.20166015625
1969/12/31/18:00:09.329,57,1731187161,167958330,RL_myo,0.5133300914538598,0.8287747897456014,-0.1190242185891826,-0.1883024176141685,-39.0625,22.4375,-93.6875,-0.23974609375,0.83984375,-0.20166015625
1969/12/31/18:00:09.371,58,1731187161,196451478,RL_myo,0.5179514617022346,0.8269156732432094,-0.102357365222089,-0.1935451431838069,-40.5625,29.25,-83.9375,-0.23828125,0.7099609375,-0.171875
1969/12/31/18:00:09.383,59,1731187161,205838801,RL_myo,0.5228933154389243,0.8248982325384687,-0.0861824864479702,-0.1967182392505723,-41.0,37.0625,-75.4375,-0.23388671875,0.64892578125,-0.14501953125
1969/12/31/18:00:09.415,60,1731187161,227907817,RL_myo,0.5269896187047933,0.8234441679344877,-0.0703141117382351,-0.1981856951510845,-37.5,44.6875,-68.5625,-0.2626953125,0.625,-0.17626953125
1969/12/31/18:00:09.445,61,1731187161,248855392,RL_myo,0.529968492710319,0.8224490889406367,-0.0554199460302855,-0.1990967664656294,-32.9375,45.3125,-59.5,-0.34521484375,0.6171875,-0.22802734375
1969/12/31/18:00:09.468,62,1731187161,265361568,RL_myo,0.5321257926750237,0.821871277628951,-0.0432756580645322,-0.1987384240594032,-26.75,41.6875,-44.875,-0.33349609375,0.6162109375,-0.26318359375
1969/12/31/18:00:09.501,63,1731187161,287752333,RL_myo,0.533107682391113,0.8225508504582824,-0.0335710127450323,-0.1951391413561241,-21.375,45.3125,-31.8125,-0.20849609375,0.5595703125,-0.36376953125
1969/12/31/18:00:09.531,64,1731187161,309038275,RL_myo,0.5316471647083804,0.8248160891738627,-0.0244765227380092,-0.1908680463884162,-5.1875,49.8125,-25.625,-0.29541015625,0.60205078125,-0.4013671875
1969/12/31/18:00:09.554,65,1731187161,325286374,RL_myo,0.5285987603744695,0.8278125159582627,-0.0175792659339315,-0.1870848961371534,7.25,42.8125,-14.6875,-0.38427734375,0.673828125,-0.4345703125
1969/12/31/18:00:09.587,66,1731187161,347870927,RL_myo,0.5241413718020894,0.8317776258934519,-0.0142220728577951,-0.1822622727612715,16.5,32.625,-5.4375,-0.212890625,0.587890625,-0.47705078125
1969/12/31/18:00:09.618,67,1731187161,368951444,RL_myo,0.5201741585859918,0.8358067065850722,-0.0133675358754203,-0.1751208238656665,19.125,34.0,6.6875,-0.1123046875,0.66845703125,-0.4921875
1969/12/31/18:00:09.642,68,1731187161,385455843,RL_myo,0.5164535191289849,0.8395345351731541,-0.0125740958445303,-0.1682243113957549,18.0625,33.0625,6.9375,-0.13671875,0.7490234375,-0.52392578125
1969/12/31/18:00:09.674,69,1731187161,407832911,RL_myo,0.5135126776027955,0.8423243731033612,-0.0124517516023975,-0.1632156067882889,11.8125,22.4375,9.1875,-0.20703125,0.7900390625,-0.56103515625
1969/12/31/18:00:09.704,70,1731187161,429092949,RL_myo,0.5110569301437994,0.8448034121724982,-0.0146487117203525,-0.1578398687867986,7.25,14.0625,17.3125,-0.10888671875,0.7578125,-0.60498046875
1969/12/31/18:00:09.727,71,1731187161,445263764,RL_myo,0.5103302133975368,0.8463998408304799,-0.0181890208817684,-0.1511275694740223,-0.25,14.25,23.75,-0.017578125,0.787109375,-0.59228515625
1969/12/31/18:00:09.770,72,1731187161,475478789,RL_myo,0.5097753207484302,0.8477944450665346,-0.0207523478274025,-0.1447171079375632,-1.75,17.75,22.75,-0.08349609375,0.82861328125,-0.6015625
1969/12/31/18:00:09.790,73,1731187161,488883426,RL_myo,0.509478128017334,0.8487232982006745,-0.0230110523855918,-0.1398974325405211,-1.25,14.125,21.75,-0.16845703125,0.87255859375,-0.57080078125
1969/12/31/18:00:09.814,74,1731187161,506103738,RL_myo,0.5099570038943272,0.8490738337730682,-0.0256351815243108,-0.1355002451999289,-6.625,10.0625,22.1875,-0.1484375,0.90087890625,-0.58740234375
1969/12/31/18:00:09.846,75,1731187161,527951164,RL_myo,0.5117311013706719,0.8485922593459507,-0.0288703257333406,-0.1311066800744517,-12.25,7.5,23.5625,-0.107421875,0.94580078125,-0.5595703125
1969/12/31/18:00:09.876,76,1731187161,548849115,RL_myo,0.5152207357178202,0.84696160748969,-0.0314955455076881,-0.1273250153663515,-19.4375,7.75,22.0,-0.12646484375,0.97119140625,-0.4892578125
1969/12/31/18:00:09.900,77,1731187161,565536108,RL_myo,0.5183308114448042,0.8454310020398003,-0.0330213105265707,-0.1244555492859109,-17.25,8.3125,16.875,-0.1728515625,0.9912109375,-0.4736328125
1969/12/31/18:00:09.932,78,1731187161,587907636,RL_myo,0.519793234679384,0.8448165994830148,-0.0346081216607809,-0.1220745032126312,-7.1875,6.625,16.625,-0.19384765625,0.953125,-0.45849609375
1969/12/31/18:00:09.962,79,1731187161,608658566,RL_myo,0.5200468937886391,0.845015164038723,-0.0371113276318653,-0.1188417021369108,-1.0625,6.375,18.1875,-0.099609375,0.85302734375,-0.458984375
1969/12/31/18:00:09.985,80,1731187161,625384112,RL_myo,0.5197286424426925,0.8457874102558296,-0.0390635738301025,-0.1140168061166118,4.625,14.875,17.875,-0.068359375,0.904296875,-0.46630859375
1969/12/31/18:00:10.020,81,1731187161,649275329,RL_myo,0.5178334052158949,0.8474913756981025,-0.0393685226737685,-0.1098046082017203,11.375,20.75,14.875,-0.18359375,0.90478515625,-0.50830078125
1969/12/31/18:00:10.048,82,1731187161,668836996,RL_myo,0.5150367307842157,0.8496458038061487,-0.039979741486568,-0.1060226121559827,14.125,18.0625,15.9375,-0.203125,0.87841796875,-0.5595703125
1969/12/31/18:00:10.083,83,1731187161,692711487,RL_myo,0.5138079862668464,0.8508533295984604,-0.0408946722260379,-0.1018704596197869,6.625,17.125,15.8125,-0.140625,0.9267578125,-0.54443359375
1969/12/31/18:00:10.104,84,1731187161,707896379,RL_myo,0.5125925920858,0.8520219091361851,-0.0407730235190895,-0.0982092737158909,5.75,19.0625,10.875,-0.158203125,0.919921875,-0.54345703125
1969/12/31/18:00:10.134,85,1731187161,728875986,RL_myo,0.5111957667079918,0.8531933644232012,-0.040041125129605,-0.0955859785868316,7.0625,16.875,7.0,-0.1982421875,0.96630859375,-0.560546875
1969/12/31/18:00:10.169,86,1731187161,752763749,RL_myo,0.51014493677496,0.8541479116090919,-0.040406311096557,-0.0924706364218789,5.25,13.75,9.6875,-0.1103515625,0.8994140625,-0.529296875
1969/12/31/18:00:10.190,87,1731187161,767888980,RL_myo,0.5106872383438427,0.8543802990722014,-0.0407109343821373,-0.0870371700583625,9.25,22.5,8.625,0.00439453125,1.1064453125,-0.42578125
1969/12/31/18:00:10.221,88,1731187161,789432218,RL_myo,0.5079564257299575,0.8566042392086304,-0.0354629516160905,-0.0833776108564193,20.9375,33.875,-16.5625,-0.1279296875,1.02880859375,-0.5029296875
1969/12/31/18:00:10.244,89,1731187161,804597618,RL_myo,0.4987936782439272,0.8620854027798859,-0.0328988977696373,-0.0832543535394905,45.875,16.1875,-1.8125,-0.37109375,0.8779296875,-0.7255859375
1969/12/31/18:00:10.277,90,1731187161,827771240,RL_myo,0.4927623560053943,0.8654012985810084,-0.0331438076688875,-0.0846601496072689,34.4375,-6.9375,-5.0,-0.14794921875,0.93408203125,-0.62158203125
1969/12/31/18:00:10.310,91,1731187161,850557937,RL_myo,0.4911070291311542,0.86630400999981,-0.0338147270865845,-0.0847809673705161,9.875,-3.4375,0.5,-0.1015625,0.96044921875,-0.57958984375
1969/12/31/18:00:10.330,92,1731187161,864793362,RL_myo,0.4903249490394992,0.8667514348762467,-0.033693436059978,-0.084782939650923,0.6875,-0.4375,-1.5,-0.107421875,0.84423828125,-0.57177734375
1969/12/31/18:00:10.363,93,1731187161,887722270,RL_myo,0.4914029636546125,0.8662266625495294,-0.0333258002925622,-0.0840469359026706,-7.625,4.9375,2.125,-0.13330078125,0.861328125,-0.517578125
1969/12/31/18:00:10.396,94,1731187161,910573270,RL_myo,0.4924590642864373,0.8657708685967807,-0.033082896981067,-0.082646203897352,-4.6875,7.6875,3.25,-0.11181640625,0.8779296875,-0.48388671875
1969/12/31/18:00:10.417,95,1731187161,925393908,RL_myo,0.4943439753152382,0.8649035844199192,-0.0327772212303102,-0.0805697058175224,-13.9375,10.25,4.0625,-0.0908203125,0.88330078125,-0.55224609375
1969/12/31/18:00:10.449,96,1731187161,947904254,RL_myo,0.4955543083936199,0.8643971074603334,-0.0312506227241696,-0.0791641751430625,-19.8125,9.0,-4.4375,-0.0908203125,0.95166015625,-0.740234375
1969/12/31/18:00:10.482,97,1731187161,970402933,RL_myo,0.5028256008904769,0.8603212969836455,-0.0293589601879484,-0.078432980959488,-56.75,3.5625,-9.875,-0.0224609375,1.09375,-0.74365234375
1969/12/31/18:00:10.502,98,1731187161,984607988,RL_myo,0.5174045211412246,0.851822283478463,-0.0253910912816738,-0.0777602170501262,-101.6875,11.375,-12.3125,0.044921875,1.044921875,-0.7685546875
1969/12/31/18:00:10.535,99,1731187162,7910935,RL_myo,0.5387831535086297,0.8387242905134339,-0.0196542625387763,-0.0766027934352928,-151.0,17.875,-16.625,0.12060546875,0.88525390625,-0.75244140625
1969/12/31/18:00:10.567,100,1731187162,30169498,RL_myo,0.5621713098742639,0.8235412934661854,-0.0103156298988871,-0.0750782531102437,-170.25,29.125,-33.375,0.2294921875,0.7822265625,-0.72021484375
1969/12/31/18:00:10.588,101,1731187162,45055336,RL_myo,0.5843543116956681,0.8082326922366865,0.0056763057225503,-0.0725102279396755,-166.3125,54.625,-65.0,0.4150390625,0.7421875,-0.576171875
1969/12/31/18:00:10.621,102,1731187162,67700818,RL_myo,0.6035845536642924,0.7939556956279822,0.0277713592797303,-0.067444729679345,-151.625,87.125,-88.1875,0.53173828125,0.65771484375,-0.48681640625
1969/12/31/18:00:10.653,103,1731187162,90250248,RL_myo,0.6181228054378713,0.7818243324630882,0.0544451014565598,-0.0609150350377205,-124.0,111.625,-105.4375,0.53369140625,0.603515625,-0.3955078125
1969/12/31/18:00:10.683,104,1731187162,111226302,RL_myo,0.625389958623352,0.7737110204479417,0.0844148265446121,-0.0559713636597319,-76.0,120.375,-126.9375,0.50439453125,0.59033203125,-0.27099609375
1969/12/31/18:00:10.707,105,1731187162,127811792,RL_myo,0.6261770280973652,0.769003253435881,0.1166414173597879,-0.0541396845620784,-31.8125,119.875,-147.3125,0.40478515625,0.5693359375,-0.14013671875
1969/12/31/18:00:10.740,106,1731187162,150903922,RL_myo,0.6228236814839887,0.7661390484111159,0.1488087157446064,-0.0545672649202945,-5.25,113.4375,-152.8125,0.2431640625,0.5302734375,-0.11279296875
1969/12/31/18:00:10.771,107,1731187162,171486823,RL_myo,0.619780451042505,0.7619991285025244,0.1789635889754406,-0.0565822806890291,-8.6875,99.125,-148.5,0.064453125,0.5849609375,-0.087890625
1969/12/31/18:00:10.794,108,1731187162,187718285,RL_myo,0.6189877749517159,0.7558352842152744,0.2046608824980873,-0.0606719108866981,-19.4375,72.8125,-135.6875,-0.07666015625,0.62890625,0.0380859375
1969/12/31/18:00:10.825,109,1731187162,210263207,RL_myo,0.6230227404101898,0.7464431363256796,0.2246226790153324,-0.0648842140742658,-48.6875,45.6875,-113.0,-0.130859375,0.583984375,0.1181640625
1969/12/31/18:00:10.857,110,1731187162,231555331,RL_myo,0.6349880607368814,0.7317958146856167,0.2383570486568799,-0.0667155580491599,-90.25,26.1875,-83.0,-0.185546875,0.53173828125,0.1455078125
1969/12/31/18:00:10.880,111,1731187162,248010643,RL_myo,0.6493387417778376,0.7162380894924936,0.2469660226765492,-0.0661058335538069,-117.375,10.375,-48.375,-0.34130859375,0.5478515625,0.14111328125
1969/12/31/18:00:10.911,112,1731187162,270394943,RL_myo,0.6638699479449841,0.7027523639840568,0.2473336731402239,-0.0651295728629365,-107.0625,-17.5,-7.0625,-0.55126953125,0.56640625,0.212890625
1969/12/31/18:00:10.943,113,1731187162,291391146,RL_myo,0.6811986360965506,0.6881571167878595,0.2405558982846331,-0.0673873919579383,-94.5,-51.6875,22.4375,-0.62841796875,0.73974609375,0.3427734375
1969/12/31/18:00:10.977,114,1731187162,315618788,RL_myo,0.7007014576776038,0.6734790839734043,0.2256527255256186,-0.0672624570000626,-121.5625,-86.8125,51.375,-0.67431640625,0.83251953125,0.46533203125
1969/12/31/18:00:10.997,115,1731187162,330322499,RL_myo,0.721895885215969,0.6576229193639004,0.205087526365575,-0.0658599526632307,-132.1875,-108.0,81.0625,-0.90966796875,0.94287109375,0.51025390625
1969/12/31/18:00:11.028,116,1731187162,351396115,RL_myo,0.7464855704588421,0.6382054885296528,0.177069062951848,-0.0640280755037878,-161.0,-144.375,107.3125,-0.85107421875,1.0263671875,0.38671875
1969/12/31/18:00:11.028,1,1731187167,271946077,RL_myo,0.8236229097800992,0.561777476034981,-0.062806282359843,-0.0458992461949484,113.125,139.0625,-172.375,-0.20361328125,0.77880859375,0.34765625
1969/12/31/18:00:11.039,2,1731187167,280435618,RL_myo,0.8092050142226535,0.5840901245452644,-0.0273458434315266,-0.0572553596847589,139.0,130.0625,-175.375,-0.29541015625,0.90283203125,0.32421875
1969/12/31/18:00:11.074,3,1731187167,303488535,RL_myo,0.7932895473012147,0.6045651278001486,0.0070191811910163,-0.0717177208647324,134.9375,113.375,-184.75,-0.4638671875,0.93212890625,0.26806640625
1969/12/31/18:00:11.102,4,1731187167,323877010,RL_myo,0.7776692546028053,0.6211099862521111,0.0406504766945662,-0.0883201798454014,117.25,101.1875,-192.0,-0.52392578125,0.90673828125,0.26953125
1969/12/31/18:00:11.125,5,1731187167,340281801,RL_myo,0.7615806835519433,0.6352304379037488,0.0732465192163446,-0.1054139489055226,109.3125,94.6875,-192.125,-0.52490234375,0.86083984375,0.2607421875
1969/12/31/18:00:11.158,6,1731187167,362790636,RL_myo,0.744379010059605,0.6485466979814107,0.1021194000680376,-0.1218962593758943,112.4375,81.0625,-176.4375,-0.61279296875,0.802734375,0.24658203125
1969/12/31/18:00:11.188,7,1731187167,383956218,RL_myo,0.7269595328786957,0.6609777314478082,0.1264702058878805,-0.1365414336733536,112.625,68.875,-152.1875,-0.64453125,0.73095703125,0.27392578125
1969/12/31/18:00:11.211,8,1731187167,400250781,RL_myo,0.710602716008908,0.6719047154978577,0.1461246265354171,-0.1491154814645046,104.5625,55.75,-126.5625,-0.59033203125,0.59423828125,0.2490234375
1969/12/31/18:00:11.244,9,1731187167,422870621,RL_myo,0.6963750400309591,0.6802611816237215,0.1610775467299238,-0.1623593309214086,99.3125,33.875,-95.0,-0.63623046875,0.576171875,0.2041015625
1969/12/31/18:00:11.276,10,1731187167,445166072,RL_myo,0.6823249689659268,0.6904427989035301,0.1672395039776938,-0.1724886270952418,101.8125,8.5625,-62.3125,-0.6357421875,0.49365234375,0.1806640625
1969/12/31/18:00:11.296,11,1731187167,459722948,RL_myo,0.6697187879143798,0.701031742544354,0.1646219076745426,-0.1814686434988562,104.3125,-21.8125,-22.0625,-0.5712890625,0.45263671875,0.11962890625
1969/12/31/18:00:11.341,12,1731187167,490279904,RL_myo,0.6579219285267989,0.7135269825102774,0.1514947793490597,-0.1872626845458965,115.9375,-48.625,33.75,-0.48779296875,0.4306640625,0.05810546875
1969/12/31/18:00:11.364,13,1731187167,505429866,RL_myo,0.6515750968711791,0.7221344235206482,0.130131906934834,-0.192451173811225,86.9375,-85.9375,77.0,-0.44482421875,0.62109375,-0.0361328125
1969/12/31/18:00:11.384,14,1731187167,519658463,RL_myo,0.6412075510317838,0.7338026823897292,0.1037651439080468,-0.1990459613436123,118.875,-105.875,82.1875,-0.3779296875,0.7158203125,-0.16455078125
1969/12/31/18:00:11.417,15,1731187167,542782693,RL_myo,0.6280661929358041,0.7457446788425321,0.0758074063776743,-0.2089281417317063,136.8125,-123.1875,69.875,-0.1083984375,0.71923828125,-0.1064453125
1969/12/31/18:00:11.448,16,1731187167,565409137,RL_myo,0.6194718150148562,0.7539989487514551,0.0472431948784608,-0.2133268295868481,104.125,-108.75,91.1875,0.19482421875,0.83935546875,-0.05615234375
1969/12/31/18:00:11.470,17,1731187167,579702750,RL_myo,0.6152040279932213,0.7593762587819889,0.0199594917307057,-0.2108869844941541,70.4375,-79.9375,113.8125,0.22998046875,0.8662109375,-0.1220703125
1969/12/31/18:00:11.503,18,1731187167,602877121,RL_myo,0.6129460381692673,0.7630390781870156,-0.0075687421562426,-0.2049664206505078,54.5625,-67.875,131.5,0.16259765625,0.78369140625,-0.18505859375
1969/12/31/18:00:11.510,19,1731187167,608165214,RL_myo,0.616711410177668,0.7608182628527941,-0.0317999450418215,-0.1995278701376481,4.75,-65.125,121.5,0.2578125,0.8466796875,-0.12890625
1969/12/31/18:00:11.543,20,1731187167,630717954,RL_myo,0.6219205935161883,0.7571817609744151,-0.0520657833221423,-0.1928204097475354,-13.625,-51.0625,88.625,0.26513671875,0.76953125,-0.1650390625
1969/12/31/18:00:11.588,21,1731187167,662077385,RL_myo,0.6225778371399163,0.7566762202964258,-0.0682394139139633,-0.187566832699114,0.1875,-40.4375,77.4375,0.046875,0.6513671875,-0.322265625
1969/12/31/18:00:11.596,22,1731187167,668166279,RL_myo,0.6211092932294449,0.7569769511233859,-0.0856955039007606,-0.1840256013253514,15.6875,-50.6875,79.8125,-0.03173828125,0.73388671875,-0.29736328125
1969/12/31/18:00:11.642,23,1731187167,699674870,RL_myo,0.6165847789768508,0.7591646684729827,-0.1007092541389629,-0.1826194475053195,37.4375,-50.875,50.0,0.0634765625,0.89208984375,-0.25390625
1969/12/31/18:00:11.688,24,1731187167,731884094,RL_myo,0.6113472444577976,0.7619867212271512,-0.1115147180136178,-0.1821956394475365,32.625,-40.25,30.0,0.03515625,0.921875,-0.349609375
1969/12/31/18:00:11.694,25,1731187167,735707809,RL_myo,0.6053082598371226,0.7655315311966513,-0.1240280713914523,-0.1793890264859638,37.4375,-35.625,47.8125,-0.0126953125,0.9814453125,-0.439453125
1969/12/31/18:00:11.740,26,1731187167,767764492,RL_myo,0.5998018662909124,0.768871894745764,-0.1370871061045475,-0.1740139534746505,42.625,-26.125,54.75,0.09228515625,0.90771484375,-0.35791015625
1969/12/31/18:00:11.743,27,1731187167,770160717,RL_myo,0.597388683219049,0.7698848943947957,-0.1451507396234697,-0.1712754311957343,19.375,-19.4375,31.9375,0.0537109375,0.96630859375,-0.30224609375
1969/12/31/18:00:11.768,28,1731187167,788263439,RL_myo,0.5974381041904704,0.7691374694425946,-0.1503971688521985,-0.1699292687031333,2.5625,-15.3125,17.4375,0.06689453125,1.0810546875,-0.267578125
1969/12/31/18:00:11.802,29,1731187167,811401951,RL_myo,0.5971353311550942,0.7693236955820103,-0.1517406146633511,-0.1689533473001431,-3.375,-4.0,-3.6875,0.08447265625,1.236328125,-0.40087890625
1969/12/31/18:00:11.827,30,1731187167,828605167,RL_myo,0.5950622098037354,0.7720121889011843,-0.146125646760708,-0.1689539641744527,23.0625,19.3125,-35.625,-0.01318359375,1.177734375,-0.13720703125
1969/12/31/18:00:11.866,31,1731187167,855734330,RL_myo,0.594504284698359,0.7728555701078667,-0.1443534531120758,-0.1685853012666188,-1.4375,10.875,6.5625,-0.306640625,1.03466796875,-0.33251953125
1969/12/31/18:00:11.892,32,1731187167,873822738,RL_myo,0.5939002730940872,0.7726196975154117,-0.147284826205142,-0.1692585259290754,-2.5,-11.25,22.25,-0.2734375,1.06787109375,-0.35888671875
1969/12/31/18:00:11.911,33,1731187167,887415798,RL_myo,0.5898047454197959,0.7746871394875348,-0.1515559539353568,-0.1703554842664441,25.9375,-22.1875,4.9375,-0.01708984375,0.97021484375,-0.2841796875
1969/12/31/18:00:11.954,34,1731187167,917426908,RL_myo,0.5847908041457271,0.7780934319225268,-0.1561924295803064,-0.1679114395370937,39.8125,-7.25,15.3125,0.00537109375,0.9189453125,-0.25048828125
1969/12/31/18:00:11.974,35,1731187167,930880652,RL_myo,0.5768044516570224,0.7837826416643202,-0.1617493964964137,-0.1637636342641049,57.5,-2.1875,26.75,-0.06884765625,0.81689453125,-0.333984375
1969/12/31/18:00:11.997,36,1731187167,947351413,RL_myo,0.5632380105252703,0.7926714393900831,-0.1693132034240463,-0.1605240537149394,90.3125,-14.5625,26.1875,-0.095703125,0.79541015625,-0.41552734375
1969/12/31/18:00:12.027,37,1731187167,968219723,RL_myo,0.5501288009907455,0.8008698544102487,-0.1762145621280685,-0.1578423476491809,96.375,-16.25,17.25,-0.01611328125,0.99658203125,-0.3427734375
1969/12/31/18:00:12.060,38,1731187167,990508162,RL_myo,0.5405886427206155,0.806702053837459,-0.1810303617826967,-0.1556397243917318,68.5,-9.375,14.5625,-0.07373046875,1.10595703125,-0.44091796875
1969/12/31/18:00:12.083,39,1731187168,7172608,RL_myo,0.5351278036854411,0.8097416954136034,-0.1854971364663004,-0.1534517278961102,43.0,-4.75,24.1875,-0.13330078125,1.15185546875,-0.443359375
1969/12/31/18:00:12.125,40,1731187168,35820706,RL_myo,0.5358546471746292,0.808695548515396,-0.1900120192111425,-0.1508865118824106,5.75,-0.1875,33.9375,-0.09912109375,1.10693359375,-0.3681640625
1969/12/31/18:00:12.146,41,1731187168,50822677,RL_myo,0.5387751936729865,0.8063011564993942,-0.1934878626875912,-0.1488696836261939,-11.5,2.125,32.8125,-0.12158203125,1.05712890625,-0.36474609375
1969/12/31/18:00:12.191,42,1731187168,82085633,RL_myo,0.5407763616199621,0.8045726861031987,-0.1953752972398982,-0.1484998744719376,-8.625,-0.0625,22.125,-0.15673828125,0.96533203125,-0.32421875
1969/12/31/18:00:12.199,43,1731187168,88169854,RL_myo,0.5410305872414307,0.8039773121778121,-0.1962334541946299,-0.1496623420482838,0.4375,-4.0625,11.3125,-0.1865234375,0.92236328125,-0.30419921875
1969/12/31/18:00:12.232,44,1731187168,110681530,RL_myo,0.5412799524316592,0.8033136506487445,-0.1956249715317397,-0.1530818809989401,4.625,-11.0,-5.5625,-0.146484375,1.16357421875,-0.2763671875
1969/12/31/18:00:12.291,45,1731187168,151657101,RL_myo,0.5440827152568531,0.8014752225754699,-0.191716828429636,-0.1576582514593282,-8.375,-7.0625,-28.875,-0.046875,1.3818359375,-0.24853515625
1969/12/31/18:00:12.297,46,1731187168,155834034,RL_myo,0.5494397548046932,0.7988910187334625,-0.1831669300343128,-0.1622928580344011,-21.125,9.3125,-48.5625,-0.0458984375,1.26708984375,-0.0927734375
1969/12/31/18:00:12.318,47,1731187168,170816519,RL_myo,0.5556921940012597,0.7963049607799246,-0.1715785102523661,-0.1663292210735317,-29.625,24.0625,-56.0625,-0.111328125,1.18994140625,-0.080078125
1969/12/31/18:00:12.341,48,1731187168,187338853,RL_myo,0.559273554987483,0.7959714537369601,-0.1578392898829674,-0.1694971802030165,-15.25,35.0,-66.5625,-0.146484375,1.06201171875,-0.08154296875
1969/12/31/18:00:12.372,49,1731187168,208263496,RL_myo,0.5608798546074917,0.7970976190357202,-0.1428293459333475,-0.1721887114863134,-4.6875,42.3125,-70.3125,-0.22119140625,1.029296875,-0.10107421875
1969/12/31/18:00:12.403,50,1731187168,230511833,RL_myo,0.5608076153801964,0.7990348816872173,-0.1272010307414376,-0.1756643793060737,-0.25,41.25,-73.5625,-0.30224609375,0.98583984375,-0.14990234375
1969/12/31/18:00:12.430,51,1731187168,248563195,RL_myo,0.563132593220691,0.798981752141648,-0.1123091232956938,-0.1785959210669566,-16.125,39.6875,-69.875,-0.251953125,0.98388671875,-0.14013671875
1969/12/31/18:00:12.458,52,1731187168,268128446,RL_myo,0.5688070451659535,0.7965984275631354,-0.0974156072631035,-0.1799991389842683,-39.1875,45.625,-62.5,-0.21484375,0.91259765625,-0.11767578125
1969/12/31/18:00:12.491,53,1731187168,290804873,RL_myo,0.575444497268038,0.7934029507835412,-0.0823371475195782,-0.1805435747686525,-49.6875,50.25,-55.375,-0.26318359375,0.79443359375,-0.1279296875
1969/12/31/18:00:12.517,54,1731187168,308738941,RL_myo,0.5811302643300009,0.7906691990474564,-0.0683000489218854,-0.1801802899172526,-44.25,50.75,-48.625,-0.259765625,0.7099609375,-0.12158203125
1969/12/31/18:00:12.555,55,1731187168,335740674,RL_myo,0.5855357624752754,0.7889137631599015,-0.0557275253976781,-0.177925231691382,-34.875,53.5625,-41.125,-0.21533203125,0.73486328125,-0.1513671875
1969/12/31/18:00:12.577,56,1731187168,350835316,RL_myo,0.5882760020031977,0.7883557628007161,-0.0444350414461846,-0.1745051971080247,-26.0,54.0,-34.0,-0.2021484375,0.67529296875,-0.1943359375
1969/12/31/18:00:12.600,57,1731187168,367142815,RL_myo,0.5907717570909565,0.7878584399762442,-0.0347297375539574,-0.1704747925978966,-25.4375,50.75,-24.8125,-0.22021484375,0.751953125,-0.251953125
1969/12/31/18:00:12.630,58,1731187168,388290161,RL_myo,0.5935498252074313,0.7871066429504141,-0.0256366646017195,-0.1658448041020764,-31.4375,49.6875,-21.375,-0.20654296875,0.77294921875,-0.3232421875
1969/12/31/18:00:12.667,59,1731187168,413779348,RL_myo,0.5960837410463083,0.7867011405228209,-0.0186772091706092,-0.159488717525497,-29.0625,49.0,-9.9375,-0.140625,0.7470703125,-0.35009765625
1969/12/31/18:00:12.689,60,1731187168,428747292,RL_myo,0.5979953658504208,0.7868488579338343,-0.0130622648047351,-0.1519861652513573,-25.5625,48.75,-3.8125,-0.09375,0.77880859375,-0.39208984375
1969/12/31/18:00:12.716,61,1731187168,448187887,RL_myo,0.5983441728263479,0.7879246074686652,-0.0075075317002591,-0.1452676865578606,-17.5625,46.125,-4.0,-0.166015625,0.8466796875,-0.4443359375
1969/12/31/18:00:12.749,62,1731187168,470753994,RL_myo,0.5982160249812398,0.7890762953736832,-0.0032959560605026,-0.1395898427846235,-12.125,37.1875,-1.6875,-0.17724609375,0.9150390625,-0.439453125
1969/12/31/18:00:12.775,63,1731187168,488621620,RL_myo,0.5987618578196872,0.7896210147414162,-0.0010986456106783,-0.1340958003700155,-15.875,28.8125,5.0,-0.1357421875,0.91455078125,-0.4423828125
1969/12/31/18:00:12.802,64,1731187168,508218047,RL_myo,0.6001760618213589,0.7894515594017548,-0.0001831107683783,-0.1286658332471701,-19.75,23.625,10.25,-0.11279296875,0.88330078125,-0.41064453125
1969/12/31/18:00:12.860,65,1731187168,547820517,RL_myo,0.6015036350388879,0.7891263822849094,0.0001831061293877,-0.1243900972307715,-19.6875,17.375,12.375,-0.158203125,0.89306640625,-0.41455078125
1969/12/31/18:00:12.863,66,1731187168,550339463,RL_myo,0.6015781293078284,0.7896933682005565,-0.0007324409041897,-0.1203644552551783,-9.0625,12.1875,14.375,-0.1201171875,0.8671875,-0.39208984375
1969/12/31/18:00:12.888,67,1731187168,568285242,RL_myo,0.6001218138142641,0.791413693848225,-0.0034791439572226,-0.1162156156938933,1.75,6.6875,21.625,-0.0927734375,0.8251953125,-0.41455078125
1969/12/31/18:00:12.922,68,1731187168,590697903,RL_myo,0.5987809817871795,0.7930033145136632,-0.0069583111033372,-0.1120654314537473,1.75,3.375,20.25,-0.029296875,0.88427734375,-0.41650390625
1969/12/31/18:00:12.947,69,1731187168,608636149,RL_myo,0.5976144068603145,0.7942759959629531,-0.0099490499763283,-0.1090122899246779,2.125,1.625,19.25,-0.09521484375,0.91455078125,-0.3955078125
1969/12/31/18:00:12.975,70,1731187168,628334801,RL_myo,0.5959042553520909,0.7958004385210039,-0.0128177705238081,-0.1069368283700566,2.75,-1.9375,17.1875,-0.1201171875,0.91943359375,-0.43701171875
1969/12/31/18:00:13.008,71,1731187168,650672657,RL_myo,0.5942595561465706,0.7972697537373157,-0.0164800821856587,-0.1046180032082191,6.0,-3.875,19.125,-0.07568359375,0.8916015625,-0.39306640625
1969/12/31/18:00:13.034,72,1731187168,668615180,RL_myo,0.590239005755105,0.8008816953994553,-0.0209971269885993,-0.0988207807980884,36.5625,8.75,23.375,0.06298828125,1.0732421875,-0.27587890625
1969/12/31/18:00:13.065,73,1731187168,691285145,RL_myo,0.5821137844869254,0.807585979086349,-0.0175177368300039,-0.0929599762790801,49.875,37.1875,-11.8125,0.0556640625,0.7275390625,-0.36669921875
1969/12/31/18:00:13.094,74,1731187168,710781399,RL_myo,0.569195890907027,0.8171394521793428,-0.0173963355397858,-0.0894232686518814,68.125,20.5,12.375,-0.2822265625,1.0693359375,-0.74658203125
1969/12/31/18:00:13.120,75,1731187168,728767714,RL_myo,0.5594618998415005,0.8234453950209124,-0.0205693497977946,-0.0922874091817967,61.8125,-22.8125,-1.0,-0.1923828125,1.4833984375,-0.65673828125
1969/12/31/18:00:13.147,76,1731187168,748158099,RL_myo,0.5616574530918071,0.8217337851526841,-0.0222172693898519,-0.0938130303631936,-11.875,-16.1875,-4.8125,-0.05322265625,1.3583984375,-0.4677734375
1969/12/31/18:00:13.181,77,1731187168,772341475,RL_myo,0.5693579308182419,0.8163157125603738,-0.0217903925066587,-0.0947912592796665,-60.1875,-5.375,1.0,-0.1552734375,0.96240234375,-0.43310546875
1969/12/31/18:00:13.206,78,1731187168,788707503,RL_myo,0.5789995984676074,0.8094763519794865,-0.0215461583659145,-0.0950960757339797,-72.0,-5.125,0.25,-0.05810546875,0.8369140625,-0.34716796875
1969/12/31/18:00:13.233,79,1731187168,808201687,RL_myo,0.5859690765704076,0.8045477498202649,-0.0209361867982968,-0.094365436706026,-52.375,2.3125,1.5625,-0.06982421875,0.77587890625,-0.29150390625
1969/12/31/18:00:13.266,80,1731187168,830674913,RL_myo,0.5898819665411572,0.8018707982668856,-0.020570180331578,-0.0928404874905939,-32.875,5.5625,2.5,-0.046875,0.75830078125,-0.31494140625
1969/12/31/18:00:13.291,81,1731187168,848528528,RL_myo,0.5928966154826075,0.8000503228068787,-0.0191040395970821,-0.0895997767684237,-33.8125,15.0625,-2.5625,0.01123046875,0.90380859375,-0.466796875
1969/12/31/18:00:13.319,82,1731187168,868253392,RL_myo,0.597392377959318,0.7972963360482896,-0.0155650410115077,-0.084844733356846,-46.6875,27.0,-10.4375,0.060546875,1.1083984375,-0.54052734375
1969/12/31/18:00:13.352,83,1731187168,890646650,RL_myo,0.6056596508903821,0.7918803094479308,-0.0091553912761823,-0.0775766820801849,-80.5625,46.625,-14.75,0.10693359375,0.9619140625,-0.5751953125
1969/12/31/18:00:13.378,84,1731187168,908824545,RL_myo,0.6150978397825339,0.7854598593154357,-0.0005493579992103,-0.068608710123605,-97.875,60.375,-21.125,0.1845703125,0.75439453125,-0.61083984375
1969/12/31/18:00:13.405,85,1731187168,928252960,RL_myo,0.6287061976867724,0.7750787668181199,0.0125741239537354,-0.0618329493453107,-107.6875,70.6875,-35.875,0.3046875,0.66748046875,-0.41455078125
1969/12/31/18:00:13.438,86,1731187168,950751897,RL_myo,0.6423441902538226,0.763867117163302,0.0308232436410281,-0.0543221521594357,-110.8125,92.1875,-59.3125,0.4462890625,0.7353515625,-0.283203125
1969/12/31/18:00:13.464,87,1731187168,968663424,RL_myo,0.6532762716991523,0.7534375687054411,0.0565810617457828,-0.0485852482736172,-98.6875,112.75,-100.125,0.50927734375,0.70166015625,-0.28662109375
1969/12/31/18:00:13.492,88,1731187168,988174084,RL_myo,0.6598412801532664,0.7449308957437986,0.0872260119647564,-0.0455968026155864,-72.6875,121.3125,-132.375,0.47607421875,0.6611328125,-0.23828125
1969/12/31/18:00:13.525,89,1731187169,10567137,RL_myo,0.6590228270527111,0.7413014943553928,0.1190843322756172,-0.0444964009374295,-19.75,123.25,-143.375,0.4326171875,0.61572265625,-0.11572265625
1969/12/31/18:00:13.550,90,1731187169,28656424,RL_myo,0.6519413569683916,0.7414833446729727,0.1522274828460976,-0.0447404751107416,22.5625,127.875,-152.6875,0.37939453125,0.62841796875,-0.0771484375
1969/12/31/18:00:13.581,91,1731187169,49722670,RL_myo,0.6447529033806072,0.7398513624800094,0.1865956286693663,-0.0457791041877738,18.8125,128.875,-161.375,0.25048828125,0.74169921875,0.03125
1969/12/31/18:00:13.611,92,1731187169,70701545,RL_myo,0.6412835603482466,0.7343081316380551,0.2179729291836654,-0.0451083715112653,-11.75,121.3125,-142.75,0.0400390625,0.7666015625,0.05615234375
1969/12/31/18:00:13.637,93,1731187169,88681573,RL_myo,0.6432234116225841,0.7244656170571694,0.2443370010177647,-0.0413840836098037,-53.5,108.125,-110.3125,-0.197265625,0.69580078125,0.01220703125
1969/12/31/18:00:13.668,94,1731187169,111109809,RL_myo,0.6505926073120321,0.7115684976117526,0.2627639717120084,-0.0368052671178492,-77.9375,78.9375,-73.0,-0.32421875,0.62548828125,0.068359375
1969/12/31/18:00:13.697,95,1731187169,130680081,RL_myo,0.6631164278934875,0.6966262694724201,0.2721682761392729,-0.0302137915875622,-116.375,40.875,-32.4375,-0.3486328125,0.6103515625,0.08203125
1969/12/31/18:00:13.723,96,1731187169,148654069,RL_myo,0.6836171670537919,0.67580439943032,0.2747286490097426,-0.0219123716939563,-174.375,7.375,-7.625,-1.072265625,0.76904296875,1.7607421875
1969/12/31/18:00:13.753,97,1731187169,169801032,RL_myo,0.6960918464009634,0.6669761141374367,0.2652156324633625,-0.0161143675420777,-83.375,-30.25,85.875,-0.76123046875,0.3662109375,0.109375
1969/12/31/18:00:13.783,98,1731187169,190778561,RL_myo,0.7123746782876736,0.659149528817461,0.240794970940354,-0.0078739039927264,-99.9375,-90.0625,123.9375,-0.7744140625,0.7197265625,0.23583984375
1969/12/31/18:00:13.809,99,1731187169,208649149,RL_myo,0.7359313080849449,0.6444358257245457,0.2075891497716594,-0.0037843361616709,-151.0625,-152.875,129.0,-0.72119140625,1.0810546875,0.263671875
1969/12/31/18:00:13.839,100,1731187169,230284360,RL_myo,0.7637061113994121,0.62441764063427,0.1638257035642601,0.0040895387998529,-197.125,-191.375,186.1875,-1.19873046875,1.29345703125,0.162109375
1969/12/31/18:00:13.869,101,1731187169,250838336,RL_myo,0.7910439463851621,0.5996918806507884,0.1207928989117465,0.0053102487141596,-202.4375,-210.875,147.875,-0.92578125,1.01416015625,0.65673828125
1969/12/31/18:00:13.901,102,1731187169,273097698,RL_myo,0.8165749110648071,0.5718099691175895,0.0786788055286691,0.0069584048334121,-209.25,-203.375,140.0,-0.5322265625,0.74267578125,0.76220703125
1969/12/31/18:00:13.925,103,1731187169,290534874,RL_myo,0.8376917505530402,0.5453785916053202,0.0284439198307867,0.0050661917295178,-188.8125,-253.75,153.0625,-0.64794921875,0.8369140625,0.744140625
1969/12/31/18:00:13.965,104,1731187169,318274049,RL_myo,0.8517739385962229,0.5233328376584747,-0.0238655399492026,-0.0058595699108016,-149.0,-293.25,119.8125,-0.78173828125,0.75341796875,0.45703125
1969/12/31/18:00:13.981,105,1731187169,328700787,RL_myo,0.8618184545667,0.5023205298218089,-0.0686036786779724,-0.0153808959313603,-132.8125,-254.3125,105.0625,-0.83740234375,0.8193359375,0.4912109375
1969/12/31/18:00:14.011,106,1731187169,350357209,RL_myo,0.863142625091935,0.4908700226991968,-0.1152403137100327,-0.0274061974871847,-60.625,-271.3125,89.1875,-0.44921875,0.9296875,0.57958984375
1969/12/31/18:00:14.042,107,1731187169,371431001,RL_myo,0.863188794529343,0.4777385585335291,-0.1594292979289099,-0.0354016052062663,-64.25,-246.25,99.25,-0.06103515625,1.10888671875,0.611328125
1969/12/31/18:00:14.067,108,1731187169,388767911,RL_myo,0.8681911515013617,0.4544819540269361,-0.1951965201421087,-0.0398572006419002,-127.875,-194.625,108.125,-0.24853515625,1.2470703125,0.65234375
1969/12/31/18:00:14.099,109,1731187169,410522812,RL_myo,0.8733173064268486,0.429822509914584,-0.2249213219305938,-0.0444959684362016,-137.1875,-167.5625,95.75,-0.44140625,1.080078125,0.58447265625
1969/12/31/18:00:14.128,110,1731187169,431395922,RL_myo,0.8784370308787521,0.4069302171253919,-0.2451835431517473,-0.0513927167870976,-134.375,-124.4375,58.25,-0.0263671875,1.740234375,1.02001953125
1969/12/31/18:00:14.152,111,1731187169,447801070,RL_myo,0.8855710789600096,0.378850347171051,-0.2613560796820429,-0.0626839546551747,-173.625,-106.1875,25.25,0.47412109375,1.21728515625,0.6572265625
1969/12/31/18:00:14.185,112,1731187169,470480842,RL_myo,0.8985193251374828,0.339851613502174,-0.2685609014744191,-0.0709855291851703,-236.25,-50.8125,39.0,0.35546875,0.837890625,0.76904296875
1969/12/31/18:00:14.214,113,1731187169,491454324,RL_myo,0.9059895686816722,0.3145296939578695,-0.2733289286907315,-0.0744665683346789,-147.375,-35.1875,37.125,0.087890625,0.60205078125,0.75048828125
1969/12/31/18:00:14.238,114,1731187169,508110379,RL_myo,0.9076666475632628,0.3031048733642097,-0.2810098342667784,-0.0728159713901534,-39.875,-58.3125,47.25,0.12353515625,0.333984375,0.7744140625
1969/12/31/18:00:14.281,115,1731187169,538110948,RL_myo,0.9042617046112726,0.3039027355558236,-0.2927940193736263,-0.0650043007364836,47.0625,-57.9375,48.3125,0.54052734375,0.35498046875,0.8603515625
1969/12/31/18:00:14.300,116,1731187169,551319002,RL_myo,0.8984858647202735,0.3134111076243872,-0.3018145914708072,-0.0583487865411712,85.6875,-42.75,24.1875,0.607421875,0.49609375,0.791015625
1969/12/31/18:00:14.334,117,1731187169,575420093,RL_myo,0.8935625933876171,0.3206205125044503,-0.309817194264723,-0.0525517344881651,61.4375,-32.6875,23.375,0.6494140625,0.572265625,0.63525390625
1969/12/31/18:00:14.334,1,1731187174,210512998,RL_myo,0.8007455260797345,0.5962102522102939,0.03363143416952,-0.0469985559174781,184.125,135.125,-207.0625,-0.52783203125,0.9814453125,0.35009765625
1969/12/31/18:00:14.352,2,1731187174,223351487,RL_myo,0.7814545172330628,0.6165330062150408,0.068971616376893,-0.0667742905454167,156.0625,102.5625,-206.25,-0.56298828125,0.8046875,0.3427734375
1969/12/31/18:00:14.378,3,1731187174,241167209,RL_myo,0.76262397553518,0.6329156396929951,0.1023627666858089,-0.0856990604811423,138.0625,95.8125,-197.375,-0.580078125,0.6640625,0.33203125
1969/12/31/18:00:14.411,4,1731187174,263673769,RL_myo,0.7438773115234925,0.6473142601712183,0.1315381641366313,-0.1016292544257499,131.25,88.5625,-170.1875,-0.60693359375,0.681640625,0.41552734375
1969/12/31/18:00:14.442,5,1731187174,286153571,RL_myo,0.7267884623645496,0.6595237537456085,0.154428051548023,-0.1138372791055585,117.125,73.5625,-130.625,-0.68017578125,0.58447265625,0.3994140625
1969/12/31/18:00:14.464,6,1731187174,301198238,RL_myo,0.7129273166668936,0.6684303976728725,0.1724331908890388,-0.1232973612728702,91.0625,58.9375,-101.375,-0.6689453125,0.4248046875,0.32861328125
1969/12/31/18:00:14.497,7,1731187174,323798118,RL_myo,0.7023503621021607,0.6746396586699559,0.1829883015192733,-0.1344640521170644,83.1875,20.375,-55.0625,-0.6796875,0.34033203125,0.224609375
1969/12/31/18:00:14.524,8,1731187174,343273770,RL_myo,0.6912986207660494,0.6842183947366602,0.1818275288064684,-0.1445342692895996,98.875,-21.9375,-7.3125,-0.615234375,0.3486328125,0.10205078125
1969/12/31/18:00:14.548,9,1731187174,360275157,RL_myo,0.6805882582678543,0.6965195170488327,0.1668814617133913,-0.1543073647444964,112.6875,-76.3125,28.25,-0.53173828125,0.525390625,-0.0419921875
1969/12/31/18:00:14.593,10,1731187174,390795392,RL_myo,0.6639629174809527,0.7145017385578261,0.1435595497256113,-0.1674251041230238,167.375,-112.6875,45.0625,-0.35302734375,0.62548828125,-0.1845703125
1969/12/31/18:00:14.612,11,1731187174,403974001,RL_myo,0.6425371129315255,0.7351303304025166,0.1163366331573561,-0.1821956190843168,204.1875,-127.4375,49.375,-0.126953125,0.59765625,-0.10546875
1969/12/31/18:00:14.636,12,1731187174,420498980,RL_myo,0.623205484060347,0.7538283768996362,0.0844776092007365,-0.1903187756415437,190.3125,-119.6875,89.3125,0.1005859375,0.84912109375,-0.0810546875
1969/12/31/18:00:14.668,13,1731187174,443139278,RL_myo,0.6136049426415447,0.7645494391254342,0.0520645594422796,-0.1903743973041856,116.25,-101.125,123.25,0.296875,1.109375,-0.14111328125
1969/12/31/18:00:14.698,14,1731187174,464039055,RL_myo,0.6161835903282488,0.7648123216258501,0.0260023981654119,-0.1862894816921065,17.5625,-76.3125,119.5,0.3408203125,1.1748046875,-0.1923828125
1969/12/31/18:00:14.729,15,1731187174,486445637,RL_myo,0.6240522212115693,0.7604720876442628,0.0040285061228446,-0.1795126743528194,-29.4375,-55.8125,119.5625,0.2490234375,0.84716796875,-0.2783203125
1969/12/31/18:00:14.754,16,1731187174,503014938,RL_myo,0.6338027664684726,0.7538004782247338,-0.0180667968870057,-0.1724890810901293,-46.375,-57.4375,124.125,0.28125,0.59912109375,-0.24365234375
1969/12/31/18:00:14.784,17,1731187174,523891873,RL_myo,0.6410803666946824,0.7482628025621357,-0.0383927973579886,-0.1662670588285551,-39.5,-58.0625,85.375,0.35986328125,0.59765625,-0.21044921875
1969/12/31/18:00:14.807,18,1731187174,540488349,RL_myo,0.6406033947133557,0.7483981155388713,-0.0527986599739926,-0.1635232486362153,1.8125,-47.375,44.5625,0.271484375,0.65966796875,-0.3095703125
1969/12/31/18:00:14.840,19,1731187174,562965781,RL_myo,0.6326596783055712,0.754918948507796,-0.065005553053105,-0.1600418404744049,49.0,-32.5,39.375,0.11669921875,0.73583984375,-0.42919921875
1969/12/31/18:00:14.882,20,1731187174,591509507,RL_myo,0.6252041629181383,0.760706773645295,-0.0769068871694673,-0.1566214860927406,52.5,-30.3125,38.75,0.109375,0.8759765625,-0.34375
1969/12/31/18:00:14.904,21,1731187174,607956965,RL_myo,0.6197247984563946,0.7648745641147523,-0.0850267550723685,-0.1538782839464759,33.125,-20.875,21.625,0.1123046875,0.9765625,-0.38720703125
1969/12/31/18:00:14.926,22,1731187174,622989917,RL_myo,0.6167255093918333,0.7673666967610975,-0.0886878627421153,-0.1514346782265576,14.75,-5.875,6.875,0.04541015625,1.2333984375,-0.41357421875
1969/12/31/18:00:14.959,23,1731187174,646023910,RL_myo,0.6181902774018531,0.7664509590575701,-0.0876502012587935,-0.1507021914400844,-10.25,4.625,-11.25,-0.0048828125,1.28759765625,-0.25244140625
1969/12/31/18:00:14.979,24,1731187174,660474067,RL_myo,0.6239209321766795,0.7622919704514333,-0.0848415276585388,-0.1497849704129888,-47.125,11.6875,-6.5,-0.08642578125,1.19482421875,-0.29248046875
1969/12/31/18:00:15.012,25,1731187174,683021120,RL_myo,0.6282577368417227,0.7589387641979968,-0.0795927415565536,-0.151555810801321,-38.5,11.25,-16.5625,-0.24853515625,1.07666015625,-0.2099609375
1969/12/31/18:00:15.052,26,1731187174,711334292,RL_myo,0.6278204328461507,0.7590486975378894,-0.0760513571190262,-0.1546052067275228,-4.375,2.0625,-9.5625,-0.39404296875,1.01220703125,-0.20556640625
1969/12/31/18:00:15.065,27,1731187174,720377466,RL_myo,0.6221468507950599,0.7630195017942749,-0.0804463405619433,-0.1557656002383001,43.375,-17.1875,22.5625,-0.3466796875,0.9443359375,-0.15625
1969/12/31/18:00:15.098,28,1731187174,742800881,RL_myo,0.6176380383512311,0.7662032113275031,-0.0867952653953405,-0.1546689187846644,47.375,-15.75,25.75,-0.1162109375,0.93994140625,-0.03662109375
1969/12/31/18:00:15.140,29,1731187174,772063566,RL_myo,0.6087184824639511,0.7732732832984855,-0.0913108242019523,-0.1522253981013831,69.625,-3.6875,16.25,-0.10302734375,0.88671875,-0.1875
1969/12/31/18:00:15.153,30,1731187174,780562404,RL_myo,0.597671557383898,0.7815751932496746,-0.0979028980845355,-0.1494789260654785,86.0625,-8.0,29.875,-0.19580078125,0.9990234375,-0.232421875
1969/12/31/18:00:15.193,31,1731187174,808855427,RL_myo,0.5866923520168641,0.7895199306427525,-0.1049234449767987,-0.1464289380449913,81.0,-9.5625,29.75,-0.1416015625,0.98681640625,-0.32666015625
1969/12/31/18:00:15.215,32,1731187174,824443438,RL_myo,0.5739214389938069,0.798411820001913,-0.112001046533408,-0.1435566547392782,87.0,-11.0,29.6875,-0.1591796875,0.95068359375,-0.421875
1969/12/31/18:00:15.238,33,1731187174,840398267,RL_myo,0.5657057859184165,0.8036342660122865,-0.1207343595755964,-0.1399004813686891,60.125,-12.8125,42.75,-0.11474609375,1.083984375,-0.43017578125
1969/12/31/18:00:15.271,34,1731187174,862647129,RL_myo,0.5587363126124176,0.8077078462748659,-0.1293382397231497,-0.1367237645020554,49.375,-15.9375,39.5625,-0.0625,1.10107421875,-0.47265625
1969/12/31/18:00:15.301,35,1731187174,883984308,RL_myo,0.5543302792923173,0.8103769123721752,-0.1364768227810638,-0.1318380756740151,35.875,-3.6875,37.6875,0.01904296875,0.99560546875,-0.40673828125
1969/12/31/18:00:15.325,36,1731187174,900556943,RL_myo,0.5486003668837361,0.8142332993134224,-0.1420940870166152,-0.125980324571432,44.625,8.9375,40.5,-0.099609375,0.89453125,-0.39697265625
1969/12/31/18:00:15.357,37,1731187174,923004617,RL_myo,0.5407296405088322,0.8191819060016974,-0.1467337234206155,-0.1225629436890998,56.625,2.9375,34.625,-0.224609375,0.92626953125,-0.41845703125
1969/12/31/18:00:15.387,38,1731187174,944121831,RL_myo,0.5296078542248854,0.8260588566416504,-0.1500260580482619,-0.1209730053098678,80.125,-3.1875,15.5,-0.1787109375,0.97119140625,-0.39013671875
1969/12/31/18:00:15.410,39,1731187174,960424472,RL_myo,0.5188868042570873,0.8326848351576503,-0.1523516602077038,-0.1190857728626723,85.25,-2.125,3.9375,-0.05859375,1.15087890625,-0.3759765625
1969/12/31/18:00:15.443,40,1731187174,983061495,RL_myo,0.5104609364999252,0.8384182020522507,-0.1516794723427375,-0.1160943084088075,79.125,11.4375,-9.5625,0.015625,1.2802734375,-0.33642578125
1969/12/31/18:00:15.496,41,1731187175,20276393,RL_myo,0.5043389503057658,0.84345394581573,-0.1463638875509169,-0.1131604034693077,63.5625,28.9375,-25.125,-0.0703125,1.2158203125,-0.314453125
1969/12/31/18:00:15.500,42,1731187175,22694746,RL_myo,0.4991681287746576,0.8481219307072472,-0.1371522114644969,-0.1127370425344574,54.0625,33.4375,-40.8125,-0.23046875,1.18994140625,-0.3095703125
1969/12/31/18:00:15.529,43,1731187175,42949386,RL_myo,0.494754644354402,0.8520570978518939,-0.1264657812857539,-0.1149910868447685,39.3125,26.125,-53.0625,-0.2724609375,1.06640625,-0.3427734375
1969/12/31/18:00:15.594,44,1731187175,88444861,RL_myo,0.4911076201096798,0.8551351923610011,-0.1160933002048982,-0.1186568746573723,31.3125,16.4375,-58.3125,-0.2265625,1.02197265625,-0.34130859375
1969/12/31/18:00:15.598,45,1731187175,90898329,RL_myo,0.4905522160828954,0.8562843149716237,-0.1044948853967795,-0.1233552356231842,9.375,13.9375,-67.25,-0.1865234375,0.9599609375,-0.30712890625
1969/12/31/18:00:15.617,46,1731187175,103529871,RL_myo,0.4920862732061158,0.855993288941028,-0.0924111408625724,-0.1287896348877331,-10.0,12.375,-67.5,-0.22900390625,0.9150390625,-0.3447265625
1969/12/31/18:00:15.647,47,1731187175,125415562,RL_myo,0.4943846523588425,0.8551633782962644,-0.0803832823650118,-0.1334838561368874,-19.5,14.0,-67.5625,-0.18603515625,0.8173828125,-0.359375
1969/12/31/18:00:15.668,48,1731187175,139733606,RL_myo,0.4980704584173956,0.853556040503537,-0.0676301553831463,-0.1370914521575331,-30.4375,20.75,-66.75,-0.18408203125,0.75634765625,-0.34619140625
1969/12/31/18:00:15.701,49,1731187175,162811835,RL_myo,0.5020844370947619,0.8516392111333835,-0.0552378331595866,-0.1398951531511298,-35.9375,23.625,-60.875,-0.2060546875,0.685546875,-0.35888671875
1969/12/31/18:00:15.733,50,1731187175,185380870,RL_myo,0.5060546646664719,0.8497519046540369,-0.0435801508348644,-0.1411777155196658,-37.125,28.625,-53.0,-0.2119140625,0.669921875,-0.3837890625
1969/12/31/18:00:15.755,51,1731187175,199961241,RL_myo,0.5084384959651749,0.8489030734554205,-0.0330820726066176,-0.1405682900609601,-29.0,33.375,-44.5,-0.18994140625,0.60107421875,-0.41943359375
1969/12/31/18:00:15.789,52,1731187175,224342157,RL_myo,0.5095283224735369,0.8488273096118204,-0.0236209224721201,-0.1389789159406137,-22.5625,34.625,-37.25,-0.19921875,0.6142578125,-0.466796875
1969/12/31/18:00:15.819,53,1731187175,245485816,RL_myo,0.5105865669219776,0.8486784968897998,-0.0158699949073178,-0.1370923406224461,-19.875,30.5,-30.1875,-0.193359375,0.6982421875,-0.49169921875
1969/12/31/18:00:15.841,54,1731187175,259715017,RL_myo,0.5113187796208676,0.8488001610848495,-0.0095830307270474,-0.1341624301786638,-19.5,28.875,-23.125,-0.14208984375,0.67724609375,-0.53515625
1969/12/31/18:00:15.874,55,1731187175,283017404,RL_myo,0.5120417736558374,0.8490896547057281,-0.0045777962837272,-0.1297652653227214,-19.75,31.125,-14.875,-0.0986328125,0.66796875,-0.55322265625
1969/12/31/18:00:15.907,56,1731187175,305502972,RL_myo,0.5133822576252765,0.8490247537234092,-0.0004272590421325,-0.1248817143147444,-24.3125,30.375,-8.3125,-0.1240234375,0.73291015625,-0.6123046875
1969/12/31/18:00:15.927,57,1731187175,320002203,RL_myo,0.5144246674525341,0.8490936816483392,0.00268565322353,-0.1199998690331848,-22.75,27.3125,-3.875,-0.11376953125,0.75537109375,-0.63525390625
1969/12/31/18:00:15.971,58,1731187175,350618729,RL_myo,0.5152159552246574,0.8491510921792954,0.0056154327544921,-0.116031931155322,-19.3125,23.125,-5.3125,-0.12841796875,0.78515625,-0.61962890625
1969/12/31/18:00:15.993,59,1731187175,365561788,RL_myo,0.5166236541845164,0.8487301407650876,0.0068972675948547,-0.1127367544043953,-21.1875,14.5625,0.1875,-0.12939453125,0.8779296875,-0.63916015625
1969/12/31/18:00:16.022,60,1731187175,386446361,RL_myo,0.5186891283370485,0.8479206131864294,0.0074464666576982,-0.1092555353875402,-25.625,11.6875,2.375,-0.08154296875,0.86279296875,-0.63232421875
1969/12/31/18:00:16.046,61,1731187175,403001249,RL_myo,0.5207541850543537,0.8471105642720786,0.0075073563949467,-0.10565230828986,-25.0625,12.0,6.9375,-0.09814453125,0.82861328125,-0.6103515625
1969/12/31/18:00:16.078,62,1731187175,425379096,RL_myo,0.5224238272874313,0.8464743120483815,0.0072024782824999,-0.1024827206467574,-20.0,10.0625,8.5,-0.12109375,0.84765625,-0.57470703125
1969/12/31/18:00:16.108,63,1731187175,446540345,RL_myo,0.5230967970284522,0.8463547476775402,0.0067141945942975,-0.100041499455033,-12.8125,7.625,8.1875,-0.14111328125,0.8466796875,-0.56494140625
1969/12/31/18:00:16.132,64,1731187175,462827772,RL_myo,0.523211095631352,0.8465863154931,0.0053102386047512,-0.0975374860964653,-9.3125,4.75,12.1875,-0.11767578125,0.81689453125,-0.5654296875
1969/12/31/18:00:16.164,65,1731187175,485413142,RL_myo,0.5238797882997918,0.8464598513505198,0.0035401407108689,-0.0950955039229961,-9.8125,4.0,13.9375,-0.126953125,0.8720703125,-0.5390625
1969/12/31/18:00:16.195,66,1731187175,506665047,RL_myo,0.5240101697793319,0.8465953470983498,0.0015869847890812,-0.0932048374202725,-8.875,1.9375,16.125,-0.17138671875,0.876953125,-0.5810546875
1969/12/31/18:00:16.218,67,1731187175,522988983,RL_myo,0.5241357741308748,0.8467841614670578,-0.0004272680119851,-0.0907639334031222,-7.1875,3.625,14.8125,-0.11572265625,0.8583984375,-0.5517578125
1969/12/31/18:00:16.250,68,1731187175,545474431,RL_myo,0.5249188531082444,0.8466452804028439,-0.0012817785947992,-0.0874661298260597,-10.0,10.75,11.3125,-0.0908203125,0.86181640625,-0.51806640625
1969/12/31/18:00:16.271,69,1731187175,559659207,RL_myo,0.5254783404101381,0.8466006018688136,-0.0018921859162172,-0.0844769454207958,-5.4375,11.875,11.875,-0.13232421875,0.8701171875,-0.470703125
1969/12/31/18:00:16.304,70,1731187175,582853298,RL_myo,0.5250556510897254,0.8471573333497209,-0.00329609453137,-0.0814257426823638,-2.6875,9.0625,14.375,-0.10107421875,0.810546875,-0.50537109375
1969/12/31/18:00:16.336,71,1731187175,605393956,RL_myo,0.5218669857015054,0.8496360749666614,-0.0059816332864032,-0.0757470092696571,24.6875,14.875,16.5,0.02490234375,1.203125,-0.59326171875
1969/12/31/18:00:16.369,72,1731187175,627828673,RL_myo,0.5191165451387341,0.8513389267013595,0.0015869524013647,-0.0757464588497553,13.25,22.25,-39.125,-0.13916015625,1.0673828125,-0.57373046875
1969/12/31/18:00:16.391,73,1731187175,643013161,RL_myo,0.5129629581754838,0.8548975716570474,0.003173973563199,-0.0775182004858239,25.1875,3.125,-1.1875,-0.39306640625,1.013671875,-0.77490234375
1969/12/31/18:00:16.424,74,1731187175,665539076,RL_myo,0.5094895292514995,0.8569214689303704,0.0013428500830876,-0.0781294593796477,17.0,-12.25,-1.1875,-0.046875,1.0009765625,-0.646484375
1969/12/31/18:00:16.452,75,1731187175,686380998,RL_myo,0.5081362999625723,0.8576974519007886,0.0009155609008334,-0.0784330505047333,3.5,-3.125,0.625,-0.1376953125,0.89013671875,-0.57421875
1969/12/31/18:00:16.477,76,1731187175,702920416,RL_myo,0.5070405973614667,0.8583738919819798,0.0002441510039058,-0.0781283212498708,2.3125,-1.5,3.0625,-0.10546875,0.7548828125,-0.494140625
1969/12/31/18:00:16.508,77,1731187175,725359749,RL_myo,0.5066760310691857,0.8587429323108509,0.0001831138529342,-0.0764195146245778,-0.75,6.9375,3.3125,-0.0888671875,0.7666015625,-0.4765625
1969/12/31/18:00:16.539,78,1731187175,746375101,RL_myo,0.5052710616685623,0.8596566359676288,-0.0001220756370303,-0.0754427436847478,4.8125,3.375,3.3125,-0.111328125,0.8017578125,-0.5224609375
1969/12/31/18:00:16.563,79,1731187175,762877363,RL_myo,0.5066728899852949,0.859103834061321,-0.0006714132983782,-0.0722684859345367,-7.4375,8.6875,3.0625,0.0263671875,0.8896484375,-0.47607421875
1969/12/31/18:00:16.595,80,1731187175,785299514,RL_myo,0.510957492045302,0.8567434426410058,0.0017090920770837,-0.0700727751604356,-36.8125,13.375,-7.75,-0.06689453125,0.9658203125,-0.638671875
1969/12/31/18:00:16.625,81,1731187175,806064177,RL_myo,0.51770619909742,0.8529762004699888,0.0051270125824314,-0.0662239125230724,-60.3125,19.75,-12.8125,0.03515625,0.96044921875,-0.73388671875
1969/12/31/18:00:16.649,82,1731187175,822883736,RL_myo,0.5324260524402529,0.8442032249571406,0.0118411847040478,-0.0608539234532766,-106.8125,40.3125,-14.75,0.1064453125,0.8193359375,-0.76513671875
1969/12/31/18:00:16.681,83,1731187175,845381609,RL_myo,0.5512739076069003,0.8323430334405778,0.0210572960722299,-0.0534672213312272,-135.75,55.625,-21.125,0.21240234375,0.76025390625,-0.62109375
1969/12/31/18:00:16.711,84,1731187175,866393411,RL_myo,0.5703534057451535,0.8193947044866161,0.0353418901890457,-0.0451692551638927,-142.0,74.9375,-44.625,0.3505859375,0.73046875,-0.55078125
1969/12/31/18:00:16.735,85,1731187175,882898278,RL_myo,0.5866930143052212,0.8070996388012839,0.0553000281898179,-0.0363783849902113,-127.875,96.75,-71.625,0.44384765625,0.6767578125,-0.43896484375
1969/12/31/18:00:16.767,86,1731187175,905396871,RL_myo,0.5989129667909965,0.7963735709052315,0.0800219016982263,-0.0262466954464052,-104.6875,120.6875,-90.375,0.462890625,0.68310546875,-0.42041015625
1969/12/31/18:00:16.797,87,1731187175,926297351,RL_myo,0.6040357374126589,0.7892871989170466,0.1091366105996194,-0.0159920536784677,-59.75,140.1875,-108.0,0.36181640625,0.71728515625,-0.3828125
1969/12/31/18:00:16.820,88,1731187175,942154310,RL_myo,0.600914307658756,0.7867124948109401,0.1411187282180847,-0.0084231766842974,-4.3125,144.75,-126.0625,0.2138671875,0.69775390625,-0.3017578125
1969/12/31/18:00:16.853,89,1731187175,965446022,RL_myo,0.5935927916945059,0.7858619221662481,0.1733474065205549,-0.0043947229822112,24.5,133.375,-137.75,0.15185546875,0.7138671875,-0.265625
1969/12/31/18:00:16.883,90,1731187175,986376286,RL_myo,0.5845090058156668,0.7851440415420763,0.2046636065684973,-0.0032961034162537,37.4375,119.0,-143.5625,0.1396484375,0.771484375,-0.1962890625
1969/12/31/18:00:16.906,91,1731187176,2297172,RL_myo,0.5777822012615687,0.7819530720855646,0.2338961964118245,-0.0031129191067335,21.125,105.625,-139.9375,0.07275390625,0.79443359375,-0.1318359375
1969/12/31/18:00:16.942,92,1731187176,26897173,RL_myo,0.5763955840766416,0.7747127769883232,0.2599670435859808,-0.0023194993323003,-16.5625,91.25,-126.25,-0.10791015625,0.7451171875,-0.09619140625
1969/12/31/18:00:16.972,93,1731187176,47967871,RL_myo,0.5799905199694263,0.7648159561373302,0.2804732097726283,-0.00152596958527,-47.625,66.8125,-103.25,-0.25048828125,0.666015625,-0.0927734375
1969/12/31/18:00:16.992,94,1731187176,62188859,RL_myo,0.5899162776664808,0.7517236291505823,0.2948055479699019,0.0002441453813415,-80.625,43.6875,-75.125,-0.30908203125,0.66943359375,-0.078125
1969/12/31/18:00:17.025,95,1731187176,85420242,RL_myo,0.6029294822529839,0.7374563681494788,0.3043335086569526,0.0039064068499889,-99.75,34.6875,-40.25,-0.46484375,0.63671875,-0.025390625
1969/12/31/18:00:17.058,96,1731187176,108109414,RL_myo,0.616000974018176,0.7256872354441235,0.3062914078104644,0.0103155137345493,-103.3125,14.5,-0.3125,-0.65625,0.61376953125,0.08203125
1969/12/31/18:00:17.078,97,1731187176,122068037,RL_myo,0.6345392016236204,0.7119949775817171,0.3003013535964036,0.0155643994242038,-131.6875,-28.25,24.25,-0.6650390625,0.70751953125,0.05908203125
1969/12/31/18:00:17.113,98,1731187176,145584312,RL_myo,0.6572779669461696,0.6962214423280099,0.2879253501193426,0.0189834182503955,-154.375,-66.6875,40.0,-0.70654296875,0.79345703125,0.06787109375
1969/12/31/18:00:17.144,99,1731187176,167776977,RL_myo,0.6792341017058295,0.6833236671995653,0.2669814846208931,0.0207530189234347,-138.0,-104.1875,75.0,-0.798828125,0.7841796875,0.16552734375
1969/12/31/18:00:17.165,100,1731187176,182272393,RL_myo,0.7095281047845212,0.6631988006266193,0.2362245152715155,0.0305810031398008,-213.25,-124.3125,134.25,-0.8291015625,0.7841796875,0.1826171875
1969/12/31/18:00:17.198,101,1731187176,205357954,RL_myo,0.7431607484392313,0.6373786065874705,0.2007602218986966,0.0339992227417373,-240.6875,-171.75,113.1875,-0.55029296875,0.8779296875,0.30078125
1969/12/31/18:00:17.231,102,1731187176,227860493,RL_myo,0.773239436447358,0.6118528663520932,0.1627904623464717,0.0351583450737036,-225.8125,-188.0625,115.75,-0.61572265625,0.81640625,0.296875
1969/12/31/18:00:17.251,103,1731187176,242395247,RL_myo,0.796102845978936,0.591690637807238,0.1234163884512312,0.0298469900853867,-167.5,-210.75,95.875,-0.388671875,0.66748046875,0.5048828125
1969/12/31/18:00:17.284,104,1731187176,265441548,RL_myo,0.8151530524718991,0.5733232962836801,0.0795926305071775,0.0221565374801422,-148.375,-238.3125,103.5625,-0.48779296875,0.98291015625,0.513671875
1969/12/31/18:00:17.317,105,1731187176,287966062,RL_myo,0.830400497630855,0.5559197157237653,0.0341803953453347,0.0148318501230648,-133.125,-245.125,115.0,-0.6416015625,1.11328125,0.5322265625
1969/12/31/18:00:17.347,106,1731187176,308895006,RL_myo,0.8443797127035122,0.5355957769967702,-0.0121462746008384,0.0035401202354202,-142.5625,-262.0625,98.75,-0.61279296875,0.94287109375,0.5048828125
1969/12/31/18:00:17.381,107,1731187176,332928448,RL_myo,0.8561282760085769,0.5138234583944247,-0.0540802547086552,-0.0102544952494967,-143.875,-250.5625,75.625,-0.7001953125,1.00390625,0.517578125
1969/12/31/18:00:17.403,108,1731187176,348028847,RL_myo,0.8611647831891646,0.497997268838358,-0.0999778804212808,-0.0199589541500359,-95.8125,-258.4375,103.1875,-0.5087890625,1.08544921875,0.4365234375
1969/12/31/18:00:17.433,109,1731187176,368895020,RL_myo,0.8630738052381149,0.4832358780813406,-0.1446594708921027,-0.0256968933525633,-79.9375,-242.875,117.8125,-0.375,1.13134765625,0.4697265625
1969/12/31/18:00:17.456,110,1731187176,385408319,RL_myo,0.8653112781562738,0.4645470930413627,-0.1855502776042232,-0.0316778269988788,-99.5625,-223.5,106.6875,-0.11181640625,1.1044921875,0.54052734375
1969/12/31/18:00:17.499,111,1731187176,415332705,RL_myo,0.8663460820706955,0.4464178698228171,-0.2204012753527745,-0.0397344863624082,-96.5625,-199.6875,78.0625,-0.01806640625,0.921875,0.5078125
1969/12/31/18:00:17.521,112,1731187176,429665774,RL_myo,0.8632231411873921,0.4356093868807478,-0.2512825901342355,-0.0441285675654729,-45.875,-174.3125,76.25,0.01171875,0.9345703125,0.47705078125
1969/12/31/18:00:17.542,113,1731187176,445325207,RL_myo,0.8577876029986982,0.4289243212318972,-0.2798659474666641,-0.0435821780787782,-13.0625,-151.6875,87.3125,0.3056640625,1.158203125,0.60791015625
1969/12/31/18:00:17.585,114,1731187176,475288202,RL_myo,0.8560968752108974,0.4170008449622737,-0.3025575510067316,-0.0408333672833374,-47.5625,-110.875,91.5,0.50390625,1.19970703125,0.5390625
1969/12/31/18:00:17.605,115,1731187176,488748391,RL_myo,0.8618875056585661,0.3933151396121946,-0.3181799849159482,-0.0348514811791687,-119.5,-59.4375,115.0625,0.359375,1.1650390625,0.51220703125
1969/12/31/18:00:17.628,116,1731187176,505408700,RL_myo,0.8685319591521838,0.36474680167909,-0.3346564112460593,-0.0248413568077961,-136.0625,-55.625,145.4375,0.3115234375,0.89111328125,0.5869140625
1969/12/31/18:00:17.628,1,1731187181,221491376,RL_myo,0.8231335098477107,0.4660110001251128,-0.3121388676672988,0.0886244888253652,-36.3125,-1.875,-4.875,0.6435546875,0.7236328125,0.30859375
1969/12/31/18:00:17.653,2,1731187181,238136538,RL_myo,0.8261851511086628,0.4607007624533234,-0.312810202381198,0.0855726641440857,-41.6875,0.875,-7.8125,0.63916015625,0.68359375,0.31201171875
1969/12/31/18:00:17.684,3,1731187181,260487482,RL_myo,0.8282009387784863,0.4577108733067926,-0.3126887323577408,0.0825210162302685,-27.0625,1.5625,-15.25,0.63427734375,0.64208984375,0.31005859375
1969/12/31/18:00:17.715,4,1731187181,281343397,RL_myo,0.8282281548903807,0.4583362970795098,-0.3122717400264712,0.0803263506401165,-2.75,1.125,-18.625,0.64111328125,0.626953125,0.2998046875
1969/12/31/18:00:17.739,5,1731187181,297869911,RL_myo,0.8269912710868029,0.4614402545882523,-0.3112890606349321,0.0791040436437004,12.75,2.5625,-16.6875,0.6357421875,0.69140625,0.294921875
1969/12/31/18:00:17.771,6,1731187181,320499899,RL_myo,0.825571369687101,0.4649713658344178,-0.309940219966812,0.0785531829652002,14.1875,6.1875,-13.5,0.6513671875,0.7646484375,0.28515625
1969/12/31/18:00:17.801,7,1731187181,341382462,RL_myo,0.8251026323412679,0.4674238761998394,-0.3075671078833887,0.0782498575722374,6.5625,14.3125,-12.1875,0.68798828125,0.84130859375,0.3046875
1969/12/31/18:00:17.825,8,1731187181,357895797,RL_myo,0.8266952330064546,0.4671829085522301,-0.3036627867843408,0.07812831499175,-11.3125,28.0,-13.3125,0.74755859375,0.900390625,0.322265625
1969/12/31/18:00:17.857,9,1731187181,380448097,RL_myo,0.8312017946814382,0.4633318272453221,-0.2971280905058923,0.0783715012755886,-31.3125,44.9375,-12.75,0.7021484375,0.87353515625,0.39111328125
1969/12/31/18:00:17.890,10,1731187181,402897623,RL_myo,0.8368058925437404,0.4586868185606279,-0.2879076145243489,0.0804456722372465,-31.0,61.6875,-8.0,0.6181640625,0.8310546875,0.443359375
1969/12/31/18:00:17.910,11,1731187181,417311991,RL_myo,0.839895718766678,0.4596231658657765,-0.2754687048542164,0.0862480123995142,11.0,78.0,-4.75,0.55517578125,0.8271484375,0.4765625
1969/12/31/18:00:17.943,12,1731187181,440480796,RL_myo,0.8415741019737287,0.4653438463481076,-0.2582463029772879,0.0922874994331504,38.9375,96.8125,-20.0,0.5205078125,0.8955078125,0.48095703125
1969/12/31/18:00:17.984,13,1731187181,468994528,RL_myo,0.8404297278320275,0.4775598947314826,-0.236704661524628,0.0979046614454624,79.1875,111.0,-45.75,0.46435546875,0.9462890625,0.36865234375
1969/12/31/18:00:17.997,14,1731187181,477809470,RL_myo,0.8373285552302057,0.4929483461174472,-0.2116821278275516,0.1052306771553342,103.625,127.75,-49.1875,0.3212890625,0.97705078125,0.29736328125
1969/12/31/18:00:18.038,15,1731187181,506359844,RL_myo,0.8329234989093685,0.5091783546755058,-0.1847007553641909,0.1134084611588455,111.9375,137.3125,-48.875,0.2138671875,1.07080078125,0.22412109375
1969/12/31/18:00:18.062,16,1731187181,522944976,RL_myo,0.8284056386169479,0.5243761303682729,-0.1560737708475932,0.1200614420247227,106.5,141.4375,-60.0,0.2578125,1.26708984375,0.2451171875
1969/12/31/18:00:18.084,17,1731187181,537952877,RL_myo,0.82320086048416,0.5399909551941398,-0.1242705532695002,0.1237212237118256,109.5625,147.0,-84.8125,0.26611328125,1.328125,0.24609375
1969/12/31/18:00:18.115,18,1731187181,560456032,RL_myo,0.8193950143582772,0.5525911103237101,-0.0897891884774304,0.1231778262049317,90.875,149.0625,-111.3125,0.12548828125,1.271484375,0.23193359375
1969/12/31/18:00:18.171,19,1731187181,599316935,RL_myo,0.8166117792132066,0.5625154463882885,-0.0534682650863867,0.1177400494881736,74.75,144.0,-138.625,-0.01513671875,1.24462890625,0.26904296875
1969/12/31/18:00:18.178,20,1731187181,603979967,RL_myo,0.8141163056475577,0.5703941277760104,-0.0156866014808383,0.1077919774908972,66.3125,136.6875,-164.1875,-0.11962890625,1.18505859375,0.36474609375
1969/12/31/18:00:18.201,21,1731187181,620448184,RL_myo,0.809805345615104,0.5785893473344065,0.0225844560094662,0.0945495198882789,75.5625,128.9375,-182.4375,-0.09765625,1.052734375,0.41552734375
1969/12/31/18:00:18.231,22,1731187181,641512606,RL_myo,0.8040701729887578,0.586098975255299,0.0609171815564245,0.0790458417991681,77.4375,122.8125,-193.5625,-0.09228515625,1.0166015625,0.3759765625
1969/12/31/18:00:18.254,23,1731187181,657288538,RL_myo,0.7957694251102833,0.5940345206085201,0.1011421291253922,0.0603678730869118,89.25,121.0625,-212.5625,-0.2373046875,1.03173828125,0.302734375
1969/12/31/18:00:18.296,24,1731187181,686483959,RL_myo,0.7858815627141004,0.6007492303092952,0.1419164763736142,0.0367456854954476,92.3125,107.8125,-234.0625,-0.509765625,0.9951171875,0.25634765625
1969/12/31/18:00:18.320,25,1731187181,702971523,RL_myo,0.7732878217070531,0.6079364357251755,0.1799394189274917,0.007812837728195,108.125,79.6875,-249.125,-0.505859375,0.90478515625,0.2373046875
1969/12/31/18:00:18.342,26,1731187181,717708267,RL_myo,0.7579069129894088,0.6155056221780784,0.2149752877143189,-0.0227060780890762,121.25,64.125,-246.5,-0.44970703125,0.75732421875,0.17822265625
1969/12/31/18:00:18.375,27,1731187181,741076754,RL_myo,0.7414428810900009,0.6221723295423051,0.2459878826700176,-0.0515170652539689,120.3125,54.625,-225.5625,-0.54296875,0.7021484375,0.18408203125
1969/12/31/18:00:18.407,28,1731187181,762854975,RL_myo,0.7250721968622872,0.628143612922788,0.2714366579212552,-0.077640528193352,114.5625,40.1875,-193.125,-0.6396484375,0.515625,0.13671875
1969/12/31/18:00:18.427,29,1731187181,777290290,RL_myo,0.7084559640381053,0.63539472608225,0.2898034735291568,-0.1018706818281724,121.8125,19.375,-157.125,-0.67236328125,0.44921875,0.17724609375
1969/12/31/18:00:18.463,30,1731187181,802500908,RL_myo,0.6954588930393037,0.6416240024248869,0.3001813968726782,-0.1206096869093965,98.9375,-0.25,-105.0625,-0.7001953125,0.38037109375,0.0771484375
1969/12/31/18:00:18.493,31,1731187181,822822116,RL_myo,0.6849461520555307,0.6488128316120381,0.3021282706001494,-0.1364154918770371,92.625,-27.375,-39.0625,-0.7470703125,0.3935546875,-0.01904296875
1969/12/31/18:00:18.513,32,1731187181,837052582,RL_myo,0.6791059515819853,0.6567050991435,0.2898072135638384,-0.1535099288359422,85.6875,-99.25,15.6875,-0.8779296875,0.51171875,-0.12158203125
1969/12/31/18:00:18.549,33,1731187181,861701394,RL_myo,0.6727066988485116,0.66995996067156,0.2639310194919666,-0.170175689718687,122.375,-143.625,52.0625,-0.6171875,0.51806640625,-0.263671875
1969/12/31/18:00:18.579,34,1731187181,882823446,RL_myo,0.6655586183848937,0.6832596454695984,0.2346301659089812,-0.1874477730245789,132.6875,-156.25,57.625,-0.29931640625,0.59326171875,-0.1103515625
1969/12/31/18:00:18.599,35,1731187181,897321206,RL_myo,0.6600537699700311,0.6952721004002796,0.2027648070871503,-0.199529847792864,119.0,-148.3125,84.8125,-0.1474609375,0.6611328125,0.02880859375
1969/12/31/18:00:18.632,36,1731187181,920373538,RL_myo,0.6596355289787489,0.7038268978119694,0.1659007465313444,-0.2049039021728194,83.875,-149.9375,129.5,-0.0087890625,0.78125,0.06103515625
1969/12/31/18:00:18.665,37,1731187181,942827948,RL_myo,0.6600598955186383,0.710965199093869,0.1297657978428542,-0.2049640400547057,65.5,-130.6875,144.125,0.10205078125,0.849609375,-0.19775390625
1969/12/31/18:00:18.685,38,1731187181,957098930,RL_myo,0.6611005556886433,0.7159125120184745,0.0964397449901261,-0.2027676157324044,49.5,-113.75,140.5,0.18310546875,0.80419921875,-0.224609375
1969/12/31/18:00:18.718,39,1731187181,980397262,RL_myo,0.65970777205955,0.7217232324974203,0.0656167519396758,-0.1989866151845052,60.8125,-94.5,134.0,0.22216796875,0.7568359375,-0.07763671875
1969/12/31/18:00:18.774,40,1731187182,19034859,RL_myo,0.6582091067299698,0.7263859958450826,0.0374759265144845,-0.1942156321972147,54.8125,-81.125,125.875,0.279296875,0.703125,-0.015625
1969/12/31/18:00:18.781,41,1731187182,23829088,RL_myo,0.6599299664279982,0.7275587495210635,0.0132449873025227,-0.1870167792393069,7.0,-67.8125,93.75,0.33642578125,0.68408203125,-0.28515625
1969/12/31/18:00:18.804,42,1731187182,40164746,RL_myo,0.6606784612566409,0.728369925921609,-0.0053713696037125,-0.1815278772891029,1.3125,-53.8125,68.3125,0.26513671875,0.703125,-0.31640625
1969/12/31/18:00:18.837,43,1731187182,62793089,RL_myo,0.6634210405743838,0.7262900875696561,-0.0197762827441439,-0.1788410754331534,-11.5,-48.75,51.125,0.1181640625,0.85546875,-0.16259765625
1969/12/31/18:00:18.880,44,1731187182,93685485,RL_myo,0.6670776934718038,0.7228658727959166,-0.0289317253825267,-0.1778629699676856,-29.0625,-37.1875,24.6875,0.10400390625,0.927734375,-0.19580078125
1969/12/31/18:00:18.891,45,1731187182,100454645,RL_myo,0.6708286414646557,0.7200878510790303,-0.0336940318551856,-0.1741468711645735,-27.0,-7.125,23.875,0.0458984375,0.7626953125,-0.12255859375
1969/12/31/18:00:18.924,46,1731187182,123037075,RL_myo,0.6736281510714941,0.7186750499017553,-0.0372949257253246,-0.1683459986095669,-19.3125,7.625,39.75,-0.13671875,0.740234375,-0.12890625
1969/12/31/18:00:18.954,47,1731187182,143901998,RL_myo,0.6720162095020795,0.7201743193383321,-0.0440076010037238,-0.1667527960363016,19.6875,-18.1875,28.3125,-0.21630859375,1.46142578125,-0.0537109375
1969/12/31/18:00:18.977,48,1731187182,160407290,RL_myo,0.671402776455025,0.7190113369672904,-0.0394296539627223,-0.1751750880387201,3.625,-16.9375,-74.875,-0.0576171875,1.89404296875,0.09716796875
1969/12/31/18:00:19.010,49,1731187182,182910768,RL_myo,0.666085361106596,0.7234591574449264,-0.0283206824478567,-0.1792625955805069,24.0,29.0,-50.5625,-0.4931640625,1.06494140625,-0.0966796875
1969/12/31/18:00:19.040,50,1731187182,203886094,RL_myo,0.6675068514566755,0.7228679262803043,-0.0301525589447327,-0.1760323481712739,9.6875,10.8125,47.125,-0.6083984375,1.07421875,0.17333984375
1969/12/31/18:00:19.063,51,1731187182,220469872,RL_myo,0.6688695227483112,0.7215465074290734,-0.0368677853385636,-0.1749999015987779,-0.125,-21.1875,45.0,-0.39306640625,1.0888671875,0.00390625
1969/12/31/18:00:19.096,52,1731187182,242868490,RL_myo,0.6659831850006767,0.723297657616902,-0.0444355016662535,-0.1770095533408452,28.9375,-35.375,21.8125,-0.21240234375,0.93408203125,-0.00390625
1969/12/31/18:00:19.126,53,1731187182,263868627,RL_myo,0.6651284764668185,0.7235416132915176,-0.0516989831666876,-0.1772536565715005,16.0,-28.125,20.75,-0.068359375,0.92529296875,0.013671875
1969/12/31/18:00:19.160,54,1731187182,287970348,RL_myo,0.6634963380202492,0.724291402663135,-0.0562781622497396,-0.1789059583015042,5.625,-25.6875,12.0625,-0.16748046875,0.78662109375,-0.16162109375
1969/12/31/18:00:19.182,55,1731187182,303448114,RL_myo,0.6629889055227681,0.7237822170584594,-0.0624413229929839,-0.1807929606111618,-2.6875,-33.5,19.5,-0.17529296875,0.8525390625,-0.1708984375
1969/12/31/18:00:19.214,56,1731187182,325481338,RL_myo,0.6623258523003573,0.723486160475176,-0.0683628195167634,-0.1822601598902282,-1.0625,-31.0,11.5,-0.05908203125,0.87744140625,-0.171875
1969/12/31/18:00:19.235,57,1731187182,340255391,RL_myo,0.6579324514753933,0.7267226799578841,-0.0731849901956579,-0.1834202631675996,24.75,-23.5,5.375,-0.091796875,0.88720703125,-0.20703125
1969/12/31/18:00:19.270,58,1731187182,363696377,RL_myo,0.6522395023782386,0.7311601159450608,-0.0782492085016752,-0.1840260246743767,34.0625,-21.5625,8.375,-0.12548828125,0.97802734375,-0.248046875
1969/12/31/18:00:19.308,59,1731187182,391447682,RL_myo,0.6447262792781429,0.7371962511712022,-0.0850235451135523,-0.1834140366591706,50.625,-21.875,16.375,-0.12255859375,1.03857421875,-0.26416015625
1969/12/31/18:00:19.321,60,1731187182,400422701,RL_myo,0.6394131281992196,0.7415873909527032,-0.091431926884539,-0.1812158817891832,40.3125,-14.3125,20.0625,-0.05517578125,1.068359375,-0.21533203125
1969/12/31/18:00:19.366,61,1731187182,431055435,RL_myo,0.6366190406234614,0.7444719499985004,-0.0968661953470214,-0.1763367601496817,28.4375,1.1875,29.25,-0.06298828125,1.1611328125,-0.18115234375
1969/12/31/18:00:19.367,62,1731187182,432620985,RL_myo,0.634563348639907,0.7468144065611064,-0.0997380253633713,-0.1721915358323564,28.5,10.0625,30.125,-0.2392578125,1.11328125,-0.06640625
1969/12/31/18:00:19.395,63,1731187182,450702654,RL_myo,0.6318010294897223,0.7494206395589614,-0.1037030189453229,-0.1686471108569319,32.75,4.5625,40.4375,-0.3359375,0.99853515625,-0.0673828125
1969/12/31/18:00:19.416,64,1731187182,465659820,RL_myo,0.6277667061205635,0.7529538246673089,-0.1102330258875778,-0.1637625738961081,48.9375,0.625,47.5625,-0.220703125,0.96484375,-0.01806640625
1969/12/31/18:00:19.448,65,1731187182,488223571,RL_myo,0.6226493082485242,0.7572382431262809,-0.1158502487065678,-0.1596145418164778,55.6875,0.625,38.25,-0.19384765625,1.0087890625,-0.02587890625
1969/12/31/18:00:19.481,66,1731187182,511075302,RL_myo,0.6159760147115784,0.7622794736160229,-0.1207903817988717,-0.1578392760646196,60.25,-7.3125,26.875,-0.23046875,1.10400390625,-0.10693359375
1969/12/31/18:00:19.514,67,1731187182,533392022,RL_myo,0.6083525379485148,0.7676582592333171,-0.1254303667587236,-0.1577187677394363,57.4375,-15.5,13.9375,-0.150390625,1.03369140625,-0.205078125
1969/12/31/18:00:19.558,68,1731187182,564661608,RL_myo,0.603648294960034,0.7706434147791091,-0.1280540063524925,-0.1591214464065529,33.5,-15.8125,0.625,-0.11181640625,1.12548828125,-0.24462890625
1969/12/31/18:00:19.578,69,1731187182,579639714,RL_myo,0.6038491655623859,0.7701167413222099,-0.1280577731072359,-0.1608962297000352,5.75,-9.0625,-13.375,-0.01025390625,1.28662109375,-0.14697265625
1969/12/31/18:00:19.588,70,1731187182,585882552,RL_myo,0.607565337810247,0.7679713763641277,-0.1215863123285123,-0.1621761204100689,-15.8125,16.5,-38.875,0.04150390625,1.14599609375,-0.02880859375
1969/12/31/18:00:19.620,71,1731187182,608200789,RL_myo,0.6121324378338087,0.7663099767677203,-0.1101704108375735,-0.1610135976673234,-14.625,47.5,-47.5625,-0.033203125,1.0869140625,0.08642578125
1969/12/31/18:00:19.666,72,1731187182,639518172,RL_myo,0.6142350933712808,0.7673208147441489,-0.0936337705685724,-0.1586402670845631,2.3125,73.0625,-63.6875,-0.13232421875,1.044921875,0.10791015625
1969/12/31/18:00:19.675,73,1731187182,645761397,RL_myo,0.6119580631026602,0.7718142537336065,-0.0742211255468616,-0.1558887784923393,31.625,88.125,-72.875,-0.26513671875,0.99755859375,0.11181640625
1969/12/31/18:00:19.706,74,1731187182,668198183,RL_myo,0.6067723252979245,0.777921062863097,-0.054323244091656,-0.1539972413969081,43.875,87.0625,-74.6875,-0.390625,0.99951171875,0.01708984375
1969/12/31/18:00:19.764,75,1731187182,707973615,RL_myo,0.6026175196501014,0.7823712515825989,-0.03546245101962,-0.1532637082792874,31.5,76.75,-74.6875,-0.38330078125,1.00439453125,-0.03759765625
1969/12/31/18:00:19.766,76,1731187182,710133148,RL_myo,0.6020780187092832,0.7835437475842527,-0.0177009960893848,-0.1524727180389081,2.375,70.3125,-69.6875,-0.33984375,0.9638671875,-0.0615234375
1969/12/31/18:00:19.792,77,1731187182,728151873,RL_myo,0.6057437680782083,0.7809846344781011,-0.0009155740146284,-0.1521073629636129,-31.1875,61.75,-61.8125,-0.35400390625,0.8681640625,-0.0751953125
1969/12/31/18:00:19.825,78,1731187182,751019758,RL_myo,0.6123966358000671,0.7757349590733632,0.0140998328386141,-0.1516800199305458,-57.0625,52.5625,-51.375,-0.34716796875,0.802734375,-0.11376953125
1969/12/31/18:00:19.847,79,1731187182,765943968,RL_myo,0.6192775432692832,0.7700379938779103,0.027100259137745,-0.1510045970873454,-63.4375,45.0625,-38.6875,-0.36767578125,0.7021484375,-0.1591796875
1969/12/31/18:00:19.878,80,1731187182,788247652,RL_myo,0.6253418386194275,0.7650595027092146,0.0371115507936175,-0.1491786679927653,-53.5,39.4375,-26.1875,-0.28564453125,0.63037109375,-0.11962890625
1969/12/31/18:00:19.911,81,1731187182,810820816,RL_myo,0.6293081160769672,0.7620671027372392,0.0454737678445529,-0.1454550184880129,-39.125,42.125,-21.0625,-0.1875,0.65771484375,-0.16064453125
1969/12/31/18:00:19.933,82,1731187182,825852071,RL_myo,0.6299097696070245,0.7618734248289613,0.0530418207159403,-0.1412413960145983,-18.875,43.3125,-14.75,-0.24609375,0.68603515625,-0.2470703125
1969/12/31/18:00:19.965,83,1731187182,848262104,RL_myo,0.6278793757318666,0.7641121711662523,0.058228533532439,-0.1360496868383718,-1.75,39.9375,-4.75,-0.20947265625,0.69873046875,-0.32275390625
1969/12/31/18:00:19.996,84,1731187182,870741024,RL_myo,0.6259439902233243,0.7664533091403493,0.0615872731482529,-0.1301939084491809,-3.0625,35.125,3.5625,-0.1953125,0.77734375,-0.384765625
1969/12/31/18:00:20.022,85,1731187182,888654687,RL_myo,0.624969629065827,0.7681651315356415,0.0622589141173106,-0.124334713781335,-8.0,24.5625,14.4375,-0.17041015625,0.7802734375,-0.392578125
1969/12/31/18:00:20.051,86,1731187182,908251331,RL_myo,0.6252103599104617,0.7689544190327049,0.0614040439392682,-0.1185354406859432,-16.9375,16.9375,19.0625,-0.125,0.802734375,-0.41748046875
1969/12/31/18:00:20.084,87,1731187182,930880563,RL_myo,0.6275202619093669,0.7679661448636956,0.0598771886910892,-0.1134065408644688,-28.9375,10.3125,19.625,-0.13671875,0.89404296875,-0.39013671875
1969/12/31/18:00:20.105,88,1731187182,945856692,RL_myo,0.6300970368187633,0.7667004629933629,0.0571317278370979,-0.1090141729883087,-27.1875,3.5,21.6875,-0.11865234375,0.90087890625,-0.3427734375
1969/12/31/18:00:20.137,89,1731187182,968279732,RL_myo,0.6316738273484606,0.7661997830423447,0.0537737599665662,-0.1050449953489903,-22.4375,-0.125,24.3125,-0.1240234375,0.87060546875,-0.3798828125
1969/12/31/18:00:20.170,90,1731187182,990711626,RL_myo,0.6334618088197078,0.7654279324146402,0.050051906266348,-0.1016908241947998,-22.75,-3.9375,23.4375,-0.13427734375,0.97216796875,-0.37646484375
1969/12/31/18:00:20.191,91,1731187183,5894147,RL_myo,0.6364420189169433,0.7634618560096985,0.0465719056712024,-0.0994917513028308,-29.6875,-8.25,20.1875,-0.16650390625,1.033203125,-0.345703125
1969/12/31/18:00:20.223,92,1731187183,28316416,RL_myo,0.6393843089930328,0.7614014196065958,0.0425442351664099,-0.0982118714243236,-31.5,-14.4375,20.875,-0.16162109375,0.9521484375,-0.3505859375
1969/12/31/18:00:20.256,93,1731187183,50571684,RL_myo,0.6417352933150919,0.7599015029268493,0.0368048679730835,-0.0968035167583922,-27.5,-20.375,25.125,-0.0810546875,0.83740234375,-0.3515625
1969/12/31/18:00:20.278,94,1731187183,65725821,RL_myo,0.6433515923811828,0.7590816321491831,0.0307026424068059,-0.0946105282913504,-21.9375,-17.3125,29.6875,-0.06787109375,0.796875,-0.34619140625
1969/12/31/18:00:20.309,95,1731187183,88320198,RL_myo,0.643836255047236,0.7591994065488739,0.0244154817992884,-0.0921684437923138,-8.3125,-14.75,33.9375,-0.10009765625,0.77734375,-0.26171875
1969/12/31/18:00:20.355,96,1731187183,119748186,RL_myo,0.6377353166195247,0.7654288735077374,0.0189220853897447,-0.0839896435364151,60.3125,15.875,21.6875,0.1376953125,1.83935546875,-0.19580078125
1969/12/31/18:00:20.364,97,1731187183,125983709,RL_myo,0.6287980260925581,0.7718065462959034,0.0288702646419899,-0.0899678014424801,27.125,12.625,-48.75,-0.44775390625,0.8212890625,-0.62353515625
1969/12/31/18:00:20.395,98,1731187183,148331326,RL_myo,0.6255900689373032,0.7746476304891516,0.0202039528557173,-0.0902768769595347,15.6875,-34.1875,29.75,-0.15966796875,1.478515625,-0.50146484375
1969/12/31/18:00:20.428,99,1731187183,170747875,RL_myo,0.6308939694722804,0.7703669493720637,0.0173959734229489,-0.0905811388058111,-36.75,-17.8125,-4.5625,0.03759765625,1.337890625,-0.24755859375
1969/12/31/18:00:20.460,100,1731187183,193292966,RL_myo,0.6388049766646231,0.7634409180318275,0.0194095148652159,-0.0933243654997333,-64.5,-9.125,-11.25,-0.21826171875,0.92138671875,-0.21484375
1969/12/31/18:00:20.482,101,1731187183,208311062,RL_myo,0.6426751967405292,0.7599303067166482,0.0156258761863021,-0.0960747231142172,-29.25,-29.0625,5.0,-0.06103515625,0.619140625,-0.12548828125
1969/12/31/18:00:20.515,102,1731187183,230734771,RL_myo,0.6442531819293296,0.7585158021635034,0.0117192431009409,-0.097233095103119,-4.25,-20.0625,7.9375,-0.05322265625,0.80908203125,-0.04296875
1969/12/31/18:00:20.540,103,1731187183,248597989,RL_myo,0.6435266343673811,0.7589500305154147,0.0095219723950783,-0.098882021025814,12.1875,-14.25,3.1875,-0.150390625,0.90185546875,-0.05078125
1969/12/31/18:00:20.568,104,1731187183,268274250,RL_myo,0.6415026173441263,0.7605864999738494,0.0084841925604979,-0.0995519285336127,21.625,-5.25,-1.375,-0.126953125,0.95556640625,-0.06591796875
1969/12/31/18:00:20.612,105,1731187183,298875853,RL_myo,0.6396740001444053,0.762298529370561,0.0085452633607077,-0.0982094910527049,19.4375,7.6875,0.0,-0.1103515625,0.99755859375,-0.0849609375
1969/12/31/18:00:20.624,106,1731187183,307194000,RL_myo,0.6386282763277519,0.7633265051854023,0.0095827811701669,-0.0969264745109882,10.0625,10.3125,-0.6875,-0.16552734375,1.02978515625,-0.1416015625
1969/12/31/18:00:20.654,107,1731187183,328219988,RL_myo,0.6385169691809518,0.7634614521092961,0.0110478512017734,-0.0964398060707297,-3.5,7.5,-1.5,-0.21533203125,1.01904296875,-0.22705078125
1969/12/31/18:00:20.691,108,1731187183,353713728,RL_myo,0.6390435125897527,0.7630680032852997,0.0120240278873143,-0.0959480804002952,-10.875,4.375,-0.3125,-0.2001953125,1.029296875,-0.271484375
1969/12/31/18:00:20.710,109,1731187183,367087893,RL_myo,0.6411547037365221,0.7615238084364859,0.0119636635503006,-0.0941222918089981,-21.125,5.5,5.125,-0.12158203125,1.005859375,-0.25390625
1969/12/31/18:00:20.751,110,1731187183,395960780,RL_myo,0.6448068047553426,0.7588260314954959,0.0116582828197908,-0.0909468136203578,-32.25,9.0625,9.9375,-0.08984375,1.015625,-0.2509765625
1969/12/31/18:00:20.773,111,1731187183,410691742,RL_myo,0.647904327370536,0.7564885759237328,0.0120242253878469,-0.0883200717574343,-34.1875,9.25,6.4375,-0.107421875,0.9912109375,-0.31591796875
1969/12/31/18:00:20.797,112,1731187183,428617448,RL_myo,0.6481733513544239,0.75670072857527,0.0117805308231852,-0.0844780034160017,-17.0,12.125,8.75,-0.0361328125,0.912109375,-0.375
1969/12/31/18:00:20.826,113,1731187183,448302490,RL_myo,0.6504849030819517,0.7553486605648074,0.0112920809862213,-0.0786783372499423,-30.8125,19.0,15.625,0.0107421875,0.88818359375,-0.35302734375
1969/12/31/18:00:20.859,114,1731187183,470897813,RL_myo,0.6538379474654037,0.7532686808878405,0.0131231477506592,-0.0700715051988688,-44.75,37.9375,9.5,0.12646484375,0.87646484375,-0.4248046875
1969/12/31/18:00:20.885,115,1731187183,488804411,RL_myo,0.6567645904835161,0.7516780605766265,0.0177009043903549,-0.0576805332720188,-39.0,65.625,11.375,0.15625,0.72021484375,-0.34912109375
1969/12/31/18:00:20.912,116,1731187183,508223627,RL_myo,0.6562634011528008,0.7530671357350499,0.0245976702627026,-0.0400398801298583,-16.3125,97.5,15.375,0.26171875,0.5888671875,-0.359375
1969/12/31/18:00:20.945,117,1731187183,530820272,RL_myo,0.6523001054224861,0.7563067845316763,0.0429088588108924,-0.0257575226432384,17.6875,130.1875,-33.75,0.38525390625,0.806640625,-0.41845703125
1969/12/31/18:00:20.968,118,1731187183,547234738,RL_myo,0.6387496479745639,0.7657060997459058,0.0736713640807738,-0.0162968137610328,81.9375,158.375,-107.625,0.49169921875,0.91796875,-0.4541015625
1969/12/31/18:00:21.010,119,1731187183,575796705,RL_myo,0.6183760262177821,0.7779904086636907,0.1109060546478837,-0.0064700285044995,122.8125,186.125,-135.5625,0.53271484375,0.96142578125,-0.46484375
1969/12/31/18:00:21.042,120,1731187183,598195250,RL_myo,0.5966323672322048,0.7879209441023562,0.1522862154725678,0.0043946322701502,122.25,206.375,-152.0,0.4892578125,1.05078125,-0.37353515625
1969/12/31/18:00:21.077,121,1731187183,623487664,RL_myo,0.575956217973896,0.7929469295992881,0.1982519919435369,0.0143439710919738,104.25,216.9375,-179.5625,0.44140625,1.01318359375,-0.27001953125
1969/12/31/18:00:21.085,122,1731187183,628175382,RL_myo,0.5594313123518805,0.7917494328986625,0.2439767545521512,0.0253926269436314,64.5,217.4375,-179.8125,0.27587890625,0.95263671875,-0.2275390625
1969/12/31/18:00:21.118,123,1731187183,650661876,RL_myo,0.551125584975498,0.7833808569692704,0.2847492362288956,0.0386379992567826,1.125,202.125,-158.375,0.08349609375,0.9169921875,-0.20703125
1969/12/31/18:00:21.154,124,1731187183,676299164,RL_myo,0.5496594104265495,0.7698283713825256,0.3199683097674595,0.0534704767944094,-49.5625,183.4375,-135.125,-0.125,0.80126953125,-0.1376953125
1969/12/31/18:00:21.172,125,1731187183,688463243,RL_myo,0.5524088241868833,0.7537175868574183,0.3492078323948243,0.0693410413564971,-80.875,163.3125,-107.9375,-0.30615234375,0.6328125,-0.1357421875
1969/12/31/18:00:21.204,126,1731187183,710823727,RL_myo,0.5584808485407503,0.7371947200737905,0.3709167340526929,0.0840467899935096,-97.625,129.0625,-78.3125,-0.4619140625,0.505859375,-0.09375
1969/12/31/18:00:21.230,127,1731187183,728833187,RL_myo,0.5701014320441002,0.7202566272077497,0.3836892507311792,0.0948541354814273,-118.75,73.3125,-54.3125,-0.5986328125,0.46337890625,-0.09912109375
1969/12/31/18:00:21.257,128,1731187183,748187450,RL_myo,0.5862694634469162,0.7044999632591679,0.3867364206558731,0.101994406394565,-130.9375,16.0,-23.375,-0.7626953125,0.43994140625,-0.04443359375
1969/12/31/18:00:21.314,129,1731187183,787831290,RL_myo,0.6046653569063041,0.6915867649655184,0.3799149183711726,0.1084075988154245,-133.75,-26.0625,21.9375,-0.9111328125,0.41552734375,0.01806640625
1969/12/31/18:00:21.317,130,1731187183,790337336,RL_myo,0.63522504426837,0.6711765721893914,0.3587828202372901,0.1314763856398644,-252.9375,-31.8125,114.8125,-1.06787109375,0.65478515625,0.05029296875
1969/12/31/18:00:21.359,131,1731187183,818703339,RL_myo,0.6689775951593021,0.6520700409750753,0.3254551585209305,0.1461252155849789,-252.25,-118.3125,125.75,-0.7099609375,0.70361328125,0.12939453125
1969/12/31/18:00:21.376,132,1731187183,830794218,RL_myo,0.7017627830615877,0.6278448279178473,0.2958549368965396,0.1606540527979558,-267.9375,-100.125,106.9375,-0.88037109375,0.44873046875,0.03173828125
1969/12/31/18:00:21.402,133,1731187183,848744808,RL_myo,0.7349201062937484,0.6057597288089002,0.2558181200562375,0.1658453429235975,-248.6875,-178.0625,104.8125,-0.52392578125,0.3642578125,0.37939453125
1969/12/31/18:00:21.441,134,1731187183,875850125,RL_myo,0.7619933016491699,0.5906607802033816,0.206490174581796,0.1668767772115372,-204.875,-230.6875,133.6875,-0.42724609375,0.646484375,0.23388671875
1969/12/31/18:00:21.462,135,1731187183,890762368,RL_myo,0.7853855550388634,0.5769992734734107,0.1527799832332536,0.1640111126439283,-186.8125,-262.25,142.0,-0.7138671875,1.0283203125,0.3623046875
1969/12/31/18:00:21.498,136,1731187183,916214686,RL_myo,0.8085163407294345,0.5602116091812434,0.0991265693299563,0.150459971304398,-190.1875,-295.875,94.125,-0.82421875,0.9072265625,0.43505859375
1969/12/31/18:00:21.515,137,1731187183,928274891,RL_myo,0.8311589575349398,0.5370152389213777,0.058230568075812,0.1319038339746643,-206.0,-246.25,22.5,-0.58837890625,0.88037109375,0.36181640625
1969/12/31/18:00:21.553,138,1731187183,953650323,RL_myo,0.8439203910745465,0.5245051295026456,0.0264907746077211,0.1095033401987369,-119.375,-221.5625,-9.125,-0.8046875,1.080078125,0.34765625
1969/12/31/18:00:21.584,139,1731187183,976243255,RL_myo,0.8494850235418313,0.5201775792644597,-0.011353324306875,0.0875304680433273,-60.9375,-254.125,17.1875,-0.77880859375,1.09521484375,0.41845703125
1969/12/31/18:00:21.626,140,1731187184,5240043,RL_myo,0.8556755256149843,0.5103900952416363,-0.0539565707000246,0.066408087015415,-94.625,-270.625,32.625,-0.5048828125,1.37060546875,0.4091796875
1969/12/31/18:00:21.630,141,1731187184,7889591,RL_myo,0.8631891048589873,0.4933032347242494,-0.0966830393223473,0.0469986996705855,-139.4375,-258.75,38.625,-0.037109375,1.66845703125,0.21533203125
1969/12/31/18:00:21.660,142,1731187184,28587612,RL_myo,0.8740539461053003,0.4649820503792023,-0.1359910748549308,0.0364392601833005,-193.0625,-213.4375,78.375,0.23193359375,2.06298828125,0.99072265625
1969/12/31/18:00:21.688,143,1731187184,48183555,RL_myo,0.8908357997995082,0.4201790781651123,-0.1705375282384259,0.0278939335737153,-292.75,-176.5,89.625,-0.1953125,1.1787109375,0.21826171875
1969/12/31/18:00:21.714,144,1731187184,66061575,RL_myo,0.9109940215712872,0.3542652798123785,-0.2098490751197377,0.0234386401529899,-403.875,-180.625,136.125,0.408203125,1.099609375,0.5400390625
