time,.header.seq,.header.stamp.secs,.header.stamp.nsecs,.header.frame_id,.orientation.x,.orientation.y,.orientation.z,.orientation.w,.angular_velocity.x,.angular_velocity.y,.angular_velocity.z,.linear_acceleration.x,.linear_acceleration.y,.linear_acceleration.z
1969/12/31/18:00:32.347,1,1731185797,6874649,RL_myo,-0.7082701454207648,-0.5494662748145753,0.04351543418224949,-0.44107439387814457,95.0625,83.625,-63.0,0.923828125,1.28125,0.61669921875
1969/12/31/18:00:32.349,2,1731185797,9158061,RL_myo,-0.7085134808689867,-0.5508083525577229,0.013426907209163329,-0.4409518390282048,77.3125,118.3125,-91.9375,0.7041015625,1.55859375,0.5625
1969/12/31/18:00:32.361,3,1731185797,21358094,RL_myo,-0.7137602335112677,-0.5461684762456037,-0.019591024793254978,-0.4380211368884454,42.9375,136.4375,-122.0,0.40869140625,1.61669921875,0.44482421875
1969/12/31/18:00:32.384,4,1731185797,43879117,RL_myo,-0.727622705568699,-0.5325646476088297,-0.052914685935921996,-0.42911552112510676,-20.3125,140.0625,-169.8125,0.14892578125,1.4306640625,0.32861328125
1969/12/31/18:00:32.404,5,1731185797,64873613,RL_myo,-0.7445163724044307,-0.5146128413897991,-0.0895934121394954,-0.4157427271759146,-36.125,150.3125,-209.9375,0.0830078125,1.20458984375,0.376953125
1969/12/31/18:00:32.421,6,1731185797,81461568,RL_myo,-0.7562424173467598,-0.4997266494419554,-0.1331709268542192,-0.4007944439283489,13.9375,170.625,-226.6875,0.1044921875,0.83447265625,0.48095703125
1969/12/31/18:00:32.449,7,1731185797,109683820,RL_myo,-0.7602020687444442,-0.49020094863161334,-0.18364226275305334,-0.3848004209564644,77.0,189.5,-225.6875,-0.25,0.619140625,0.40283203125
1969/12/31/18:00:32.464,8,1731185797,124756298,RL_myo,-0.7544554742357437,-0.4887299334800061,-0.24033697278275024,-0.36630332926411047,154.125,199.8125,-219.625,-0.61767578125,0.728515625,0.29150390625
1969/12/31/18:00:32.481,9,1731185797,141445047,RL_myo,-0.7441507106654732,-0.4907500914017116,-0.29581714874071585,-0.3433602803415035,184.9375,181.6875,-220.3125,-0.73388671875,0.8857421875,0.25537109375
1969/12/31/18:00:32.504,10,1731185797,163956762,RL_myo,-0.7343371659943855,-0.48990395872979825,-0.3453191227722933,-0.3185871016032823,164.625,157.125,-218.875,-0.71728515625,0.9208984375,0.3349609375
1969/12/31/18:00:32.525,11,1731185797,184859593,RL_myo,-0.7267067163213724,-0.48264018750897897,-0.39017687389288097,-0.29447887009747387,123.1875,148.125,-219.6875,-0.76708984375,0.80908203125,0.3408203125
1969/12/31/18:00:32.541,12,1731185797,201457156,RL_myo,-0.7168262427499703,-0.4749546037531093,-0.43168258961009276,-0.27244890145899253,119.375,146.8125,-199.75,-0.77783203125,0.7470703125,0.431640625
1969/12/31/18:00:32.564,13,1731185797,224014008,RL_myo,-0.7044881784488638,-0.4692722519356592,-0.46756336611771165,-0.25468501851053527,117.4375,140.4375,-158.9375,-0.74951171875,0.6533203125,0.53515625
1969/12/31/18:00:32.584,14,1731185797,244865658,RL_myo,-0.6921128878518537,-0.46476540044019976,-0.4958311376462486,-0.24315500398604806,95.625,126.3125,-109.9375,-0.74560546875,0.56591796875,0.57958984375
1969/12/31/18:00:32.601,15,1731185797,261467750,RL_myo,-0.679654477097127,-0.4632953606002417,-0.5170036885317675,-0.2369269648070265,82.5,108.875,-61.5625,-0.70263671875,0.5126953125,0.5458984375
1969/12/31/18:00:32.623,16,1731185797,283657853,RL_myo,-0.6701092884352644,-0.4635838028191501,-0.5302895817134802,-0.2341720710133069,77.125,85.3125,-10.0625,-0.57861328125,0.36767578125,0.39794921875
1969/12/31/18:00:32.652,17,1731185797,312409803,RL_myo,-0.6615273533640362,-0.4693371480182155,-0.5354349544296235,-0.23540095967571617,63.625,50.25,38.25,-0.51513671875,0.3798828125,0.25
1969/12/31/18:00:32.661,18,1731185797,321369580,RL_myo,-0.6560383622298936,-0.48044785444913224,-0.5318372209946314,-0.23650094461260004,56.25,-4.375,64.75,-0.484375,0.630859375,0.1083984375
1969/12/31/18:00:32.684,19,1731185797,343894708,RL_myo,-0.6456583647323878,-0.503026395890381,-0.5275612916860536,-0.22752759086136137,134.1875,-40.1875,62.5,-0.412109375,0.57958984375,-0.1015625
1969/12/31/18:00:32.705,20,1731185797,364935094,RL_myo,-0.633632893806331,-0.5308552215688179,-0.5208459945813166,-0.21312329658752727,172.375,-66.5,64.4375,-0.15966796875,0.529296875,-0.0859375
1969/12/31/18:00:32.721,21,1731185797,381399701,RL_myo,-0.6204620056335095,-0.5601003173026476,-0.5089546198089548,-0.20562035185710145,155.75,-62.9375,105.0625,0.1494140625,0.7255859375,-0.00537109375
1969/12/31/18:00:32.743,22,1731185797,403808262,RL_myo,-0.6057913722757327,-0.5877872966338487,-0.49502053400447993,-0.20610089302590665,129.6875,-38.875,134.4375,0.32763671875,0.765625,-0.0283203125
1969/12/31/18:00:32.764,23,1731185797,424897140,RL_myo,-0.5932147713410183,-0.6105473840015995,-0.4795152735006564,-0.21305686900735543,83.25,-23.25,147.1875,0.27783203125,0.78955078125,-0.1845703125
1969/12/31/18:00:32.781,24,1731185797,441416164,RL_myo,-0.5817370971943462,-0.6301948453240472,-0.46455967098650475,-0.22050106296298497,66.8125,-19.75,137.8125,0.26708984375,0.7529296875,-0.2783203125
1969/12/31/18:00:32.804,25,1731185797,463824549,RL_myo,-0.5707638641726658,-0.6465035942238077,-0.4522412567920716,-0.22746331498840094,59.4375,-9.625,116.1875,0.36962890625,0.73388671875,-0.23193359375
1969/12/31/18:00:32.825,26,1731185797,485072779,RL_myo,-0.560822022111967,-0.6593274899200761,-0.44113848904399794,-0.23698682249001715,34.9375,-1.0,87.3125,0.3173828125,0.77490234375,-0.28076171875
1969/12/31/18:00:32.841,27,1731185797,501545297,RL_myo,-0.5521063716069344,-0.6687408261880589,-0.4345564189521748,-0.24315628835750905,26.1875,3.4375,60.25,0.17236328125,0.79150390625,-0.4130859375
1969/12/31/18:00:32.864,28,1731185797,523891964,RL_myo,-0.5445635236091884,-0.6757762968647925,-0.43056098386897057,-0.24777853926407092,22.0625,7.6875,42.8125,0.10888671875,0.837890625,-0.43310546875
1969/12/31/18:00:32.884,29,1731185797,544624906,RL_myo,-0.5365107629511481,-0.68200520714129,-0.4281833139421289,-0.25235718402946167,25.75,15.8125,36.25,0.11083984375,0.80908203125,-0.40576171875
1969/12/31/18:00:32.901,30,1731185797,561218059,RL_myo,-0.5292596506497291,-0.686536186595803,-0.4274601698743892,-0.2565737513066722,20.0625,21.125,28.0625,0.0517578125,0.849609375,-0.4384765625
1969/12/31/18:00:32.923,31,1731185797,583523667,RL_myo,-0.5243205663713866,-0.6891052863344577,-0.4280130522596361,-0.2588951044753139,10.1875,16.75,15.0,-0.044921875,0.96728515625,-0.5068359375
1969/12/31/18:00:32.944,32,1731185797,604889058,RL_myo,-0.5190131544601942,-0.6928312946180768,-0.42746567895569154,-0.26054411528581484,17.4375,11.75,24.625,-0.091796875,0.93212890625,-0.466796875
1969/12/31/18:00:32.961,33,1731185797,621396617,RL_myo,-0.5151562462629682,-0.6964770859321161,-0.42287852509846063,-0.26590875073661324,1.0,11.5625,50.125,-0.0732421875,0.81640625,-0.36474609375
1969/12/31/18:00:32.984,34,1731185797,643789720,RL_myo,-0.5127752657326554,-0.6989782335677341,-0.4178123624382003,-0.2718892893167079,-5.3125,9.5625,44.3125,0.0,0.9482421875,-0.32861328125
1969/12/31/18:00:33.004,35,1731185797,664854390,RL_myo,-0.5097791607971267,-0.7004962537566647,-0.41854010352528376,-0.27249658242058794,13.8125,9.0625,6.625,-0.04296875,1.04443359375,-0.4013671875
1969/12/31/18:00:33.020,36,1731185797,680756921,RL_myo,-0.5022271552408963,-0.7055836847417671,-0.4229474037938281,-0.2665239988986504,58.5,2.0,-2.0,-0.1953125,1.083984375,-0.52783203125
1969/12/31/18:00:33.043,37,1731185797,703706136,RL_myo,-0.500215259892835,-0.7071124940359184,-0.4242308774420567,-0.26420593705174267,37.9375,-3.1875,-8.375,-0.025390625,1.3564453125,-0.25634765625
1969/12/31/18:00:33.066,38,1731185797,726403183,RL_myo,-0.4977740057180432,-0.7072956047408537,-0.4252684246987892,-0.26664720831070754,9.75,16.3125,0.4375,0.04541015625,1.052734375,-0.35009765625
1969/12/31/18:00:33.080,39,1731185797,740421796,RL_myo,-0.4975918366206572,-0.7061983492625566,-0.42252278730832943,-0.2741546093585174,-30.0,25.4375,33.25,-0.083984375,1.017578125,-0.4609375
1969/12/31/18:00:33.103,40,1731185797,763826765,RL_myo,-0.4955649323108619,-0.7070954810041437,-0.4216574036127765,-0.27683282425641254,-1.375,14.9375,24.9375,-0.15576171875,0.96484375,-0.43408203125
1969/12/31/18:00:33.126,41,1731185797,786271813,RL_myo,-0.49135829370566597,-0.7102144409207347,-0.42245461545529994,-0.2751264672742693,17.9375,4.0,16.375,-0.17529296875,0.81494140625,-0.5244140625
1969/12/31/18:00:33.140,42,1731185797,800831162,RL_myo,-0.4847622023602174,-0.7164325183817942,-0.4214739732468414,-0.2721943122908938,44.8125,-6.4375,26.5,-0.10107421875,0.87646484375,-0.43994140625
1969/12/31/18:00:33.163,43,1731185797,823753950,RL_myo,-0.47812398881289214,-0.7223736956330599,-0.42020470551145805,-0.2701882688887763,49.125,-4.375,25.9375,-0.03662109375,0.935546875,-0.3642578125
1969/12/31/18:00:33.186,44,1731185797,846407887,RL_myo,-0.4717838682348003,-0.7272063117745984,-0.42008905110739075,-0.2685445045579717,47.75,2.5625,21.5,-0.06884765625,0.9794921875,-0.3720703125
1969/12/31/18:00:33.200,45,1731185797,860853957,RL_myo,-0.4668406784329803,-0.7308079858225267,-0.4199063756855673,-0.26769031449954916,35.4375,5.6875,21.8125,-0.1162109375,0.97900390625,-0.3984375
1969/12/31/18:00:33.223,46,1731185797,883824405,RL_myo,-0.46236035548096954,-0.7341862561293643,-0.41963962569788105,-0.26663838346044827,27.8125,3.9375,21.0,-0.1162109375,0.916015625,-0.47216796875
1969/12/31/18:00:33.247,47,1731185797,907856438,RL_myo,-0.457247205688314,-0.7388460587376842,-0.41837020755384313,-0.2645710940548373,32.0625,-2.4375,28.125,-0.1396484375,0.859375,-0.49609375
1969/12/31/18:00:33.260,48,1731185797,920517494,RL_myo,-0.45127815462072696,-0.7451521490079058,-0.41587900264885497,-0.26103822928223547,44.1875,-12.125,34.8125,-0.13330078125,0.8857421875,-0.4921875
1969/12/31/18:00:33.297,49,1731185797,957367016,RL_myo,-0.44613326283033333,-0.7512249428424861,-0.41323780063258375,-0.25663342957613566,44.25,-19.5,27.4375,-0.06494140625,1.0751953125,-0.57080078125
1969/12/31/18:00:33.306,50,1731185797,966463724,RL_myo,-0.4430933687350446,-0.7547234983164686,-0.41276039294147476,-0.2523679173167231,33.5625,-16.4375,6.4375,-0.0224609375,1.099609375,-0.56884765625
1969/12/31/18:00:33.327,51,1731185797,987345731,RL_myo,-0.44040727193866486,-0.7578959954177301,-0.40958608674894403,-0.2527337185557111,17.3125,-1.4375,31.75,-0.0673828125,1.09130859375,-0.55419921875
1969/12/31/18:00:33.343,52,1731185798,3743748,RL_myo,-0.4388812524467504,-0.7608251554722835,-0.4036657771774172,-0.2560903539516847,0.4375,2.375,49.875,-0.06591796875,0.95556640625,-0.4775390625
1969/12/31/18:00:33.356,53,1731185798,16648720,RL_myo,-0.43893192862010566,-0.7623940006009955,-0.39883483781039913,-0.25889171874394995,-8.8125,0.8125,37.375,-0.0458984375,0.96435546875,-0.51025390625
1969/12/31/18:00:33.372,54,1731185798,32048127,RL_myo,-0.43642683824030865,-0.7644640715701448,-0.3979778229849046,-0.25834076440654824,11.75,3.625,20.3125,-0.109375,0.8447265625,-0.54345703125
1969/12/31/18:00:33.394,55,1731185798,54161692,RL_myo,-0.42941070315920066,-0.7689234578031223,-0.3987123541414238,-0.2557178576232306,42.75,6.125,21.625,-0.13427734375,0.76220703125,-0.54248046875
1969/12/31/18:00:33.409,56,1731185798,69163700,RL_myo,-0.42221329740134594,-0.7725929649904074,-0.4012796227831526,-0.2526078112090447,48.375,10.0,10.5,-0.11962890625,0.85400390625,-0.56591796875
1969/12/31/18:00:33.431,57,1731185798,91704389,RL_myo,-0.4168491522264339,-0.7747413086914132,-0.40531408783832323,-0.24846162499470167,44.1875,6.5,-5.4375,-0.10791015625,1.0244140625,-0.64404296875
1969/12/31/18:00:33.462,58,1731185798,122099636,RL_myo,-0.41532211474922914,-0.774433844827769,-0.4102564666192973,-0.24382246119370615,23.375,1.5625,-21.625,-0.119140625,1.12744140625,-0.7236328125
1969/12/31/18:00:33.472,59,1731185798,132176540,RL_myo,-0.41892081567183076,-0.7713782327034192,-0.41519788884257935,-0.23893866453310278,-0.3125,-8.1875,-36.3125,-0.13037109375,1.12109375,-0.63232421875
1969/12/31/18:00:33.491,60,1731185798,151705633,RL_myo,-0.42763990632554616,-0.7656261773731949,-0.41933977399212613,-0.2347228599583346,-27.6875,-15.1875,-43.625,-0.171875,1.09423828125,-0.5283203125
1969/12/31/18:00:33.514,61,1731185798,174119901,RL_myo,-0.4391114859011254,-0.7581157578684892,-0.4239760239826433,-0.22953416240085237,-36.4375,-20.8125,-53.5,-0.24462890625,1.12158203125,-0.439453125
1969/12/31/18:00:33.529,62,1731185798,189146772,RL_myo,-0.44962566975883017,-0.7505764200752129,-0.43009530267279433,-0.22246308758937638,-29.0,-22.6875,-62.9375,-0.287109375,1.02734375,-0.41943359375
1969/12/31/18:00:33.551,63,1731185798,211648503,RL_myo,-0.4592076526235353,-0.7430082353852895,-0.43723599460327045,-0.21422366569758225,-18.375,-23.5625,-71.75,-0.27734375,1.01806640625,-0.35791015625
1969/12/31/18:00:33.574,64,1731185798,234210078,RL_myo,-0.46681386032177186,-0.7357093850410459,-0.44563665944170194,-0.20548598087376205,-9.3125,-19.5625,-78.0,-0.26171875,0.955078125,-0.36474609375
1969/12/31/18:00:33.589,65,1731185798,249194013,RL_myo,-0.47145954788836775,-0.7303503442822132,-0.45284528742157787,-0.19810455565639376,-0.625,-13.25,-63.8125,-0.2236328125,0.81689453125,-0.3515625
1969/12/31/18:00:33.611,66,1731185798,271788508,RL_myo,-0.47401799162270725,-0.726559056298227,-0.45876055658914516,-0.19224368142288242,4.5625,-9.4375,-51.25,-0.16845703125,0.7607421875,-0.35791015625
1969/12/31/18:00:33.643,67,1731185798,303060262,RL_myo,-0.47585790008155193,-0.7232161236329858,-0.4648113078134025,-0.1856559871807209,10.0625,-8.5625,-48.75,-0.23583984375,0.751953125,-0.36962890625
1969/12/31/18:00:33.649,68,1731185798,309191527,RL_myo,-0.4770160479294666,-0.7212609588575277,-0.4692041167453607,-0.17912514082305328,12.125,-13.8125,-38.375,-0.2197265625,0.6884765625,-0.3837890625
1969/12/31/18:00:33.671,69,1731185798,331811121,RL_myo,-0.4765409320479745,-0.7208536050741069,-0.4715973081371284,-0.17571226221389838,9.625,-9.6875,-25.1875,-0.0625,0.654296875,-0.41552734375
1969/12/31/18:00:33.694,70,1731185798,354268166,RL_myo,-0.47574775193731916,-0.7207319054044646,-0.4735505846416497,-0.17308795695885018,11.5625,-6.1875,-20.0625,-0.07568359375,0.68359375,-0.40283203125
1969/12/31/18:00:33.709,71,1731185798,369185801,RL_myo,-0.4744592968473549,-0.7210267729553191,-0.4754968332567201,-0.170033908028908,13.625,-5.125,-14.6875,-0.1650390625,0.7041015625,-0.45263671875
1969/12/31/18:00:33.734,72,1731185798,394700853,RL_myo,-0.47134846702718625,-0.7229214802456326,-0.4765361686583284,-0.16771534214563094,15.625,-4.625,-5.875,-0.09423828125,0.6259765625,-0.537109375
1969/12/31/18:00:33.754,73,1731185798,414198933,RL_myo,-0.4671346265057609,-0.7259079236555422,-0.47616727933080044,-0.16765336020529464,18.0,0.25,4.25,0.0,0.640625,-0.51025390625
1969/12/31/18:00:33.769,74,1731185798,429241157,RL_myo,-0.46354351165028734,-0.7287306819097341,-0.4750176630907421,-0.16863340654242842,14.125,0.8125,8.375,0.00341796875,0.7255859375,-0.52587890625
1969/12/31/18:00:33.792,75,1731185798,451829324,RL_myo,-0.459989161087885,-0.7312710797605199,-0.47433139975786687,-0.16929944710863648,8.3125,1.8125,8.6875,-0.05712890625,0.7294921875,-0.6376953125
1969/12/31/18:00:33.808,76,1731185798,468287793,RL_myo,-0.45700330991650734,-0.7339639162734932,-0.47274941754984856,-0.17015561271998164,8.125,-1.5,11.5625,-0.03857421875,0.74560546875,-0.59912109375
1969/12/31/18:00:33.829,77,1731185798,489269188,RL_myo,-0.4551709311359622,-0.7362197562742172,-0.47018461430295694,-0.17241323149089477,-0.6875,-2.0,14.1875,0.01025390625,0.78369140625,-0.59423828125
1969/12/31/18:00:33.851,78,1731185798,511750271,RL_myo,-0.453454449291623,-0.7385265532810134,-0.4674303670423338,-0.17454639636258973,1.125,-1.5625,17.4375,-0.03369140625,0.8251953125,-0.5869140625
1969/12/31/18:00:33.868,79,1731185798,528223447,RL_myo,-0.4513337841949993,-0.7409320000172132,-0.46518811401410204,-0.17583402735169615,2.5625,-2.1875,15.6875,-0.0673828125,0.85205078125,-0.66015625
1969/12/31/18:00:33.889,80,1731185798,549297522,RL_myo,-0.4489684068119688,-0.7433979329757722,-0.46318940175313095,-0.17675537059916552,6.0625,-3.4375,12.3125,-0.02978515625,0.8720703125,-0.66015625
1969/12/31/18:00:33.912,81,1731185798,571807858,RL_myo,-0.4476545519616429,-0.7450534110903526,-0.46126422682019047,-0.1781463718031405,2.25,-1.875,10.875,-0.0546875,0.9462890625,-0.64453125
1969/12/31/18:00:33.928,82,1731185798,588186282,RL_myo,-0.4469349801798964,-0.7464784572689216,-0.45962956926598386,-0.17821250063161237,0.375,-4.9375,10.25,-0.14306640625,0.94580078125,-0.685546875
1969/12/31/18:00:33.949,83,1731185798,609173651,RL_myo,-0.4474237644166158,-0.7476999778840485,-0.45749400328290163,-0.17735826754804057,-4.0,-13.5,8.125,-0.13427734375,0.89697265625,-0.6650390625
1969/12/31/18:00:33.971,84,1731185798,631704641,RL_myo,-0.4479760337372238,-0.7489256008160045,-0.4547506031847485,-0.17784770603682154,-8.0,-14.375,6.75,-0.00048828125,0.90673828125,-0.6640625
1969/12/31/18:00:33.995,85,1731185798,655730081,RL_myo,-0.4485225923803526,-0.7495313589635475,-0.45236759487320366,-0.17998273573678866,-9.0,-4.75,7.625,0.00439453125,0.9228515625,-0.5888671875
1969/12/31/18:00:34.009,86,1731185798,669042043,RL_myo,-0.44974673859687875,-0.7491710159148713,-0.45145564193257054,-0.180716527749404,-9.1875,-1.6875,4.375,-0.16064453125,0.89697265625,-0.572265625
1969/12/31/18:00:34.033,87,1731185798,693253450,RL_myo,-0.45169340265137625,-0.748489108244356,-0.45071690022705224,-0.1805308856969019,-11.875,-8.125,-2.125,-0.1171875,0.853515625,-0.56494140625
1969/12/31/18:00:34.049,88,1731185798,709552240,RL_myo,-0.45388899714386877,-0.7474490450478635,-0.44925062632459567,-0.18297152258132562,-19.5,-3.625,-1.9375,0.0166015625,0.87646484375,-0.52734375
1969/12/31/18:00:34.069,89,1731185798,729141643,RL_myo,-0.4568862623749824,-0.7455070391277598,-0.4478535123307001,-0.18681924246992002,-29.8125,4.375,3.5625,-0.052734375,0.8212890625,-0.50927734375
1969/12/31/18:00:34.091,90,1731185798,751586064,RL_myo,-0.4613973198734928,-0.7428130661614128,-0.4466277231262196,-0.18938040787929208,-35.3125,2.0625,5.625,-0.22216796875,0.86083984375,-0.52294921875
1969/12/31/18:00:34.109,91,1731185798,769761220,RL_myo,-0.46507963853081263,-0.7410146839111018,-0.44560976914874845,-0.18981596795680147,-28.1875,-6.5625,1.0625,-0.197265625,0.822265625,-0.564453125
1969/12/31/18:00:34.132,92,1731185798,792054337,RL_myo,-0.46780223557580514,-0.7398171819504122,-0.4437560410791493,-0.19212543217125044,-22.0625,-2.8125,4.375,-0.07470703125,0.8876953125,-0.49169921875
1969/12/31/18:00:34.151,93,1731185798,811725263,RL_myo,-0.4694496043646352,-0.7385958283958418,-0.4427180746309235,-0.19517678558997703,-15.9375,7.3125,6.75,-0.10986328125,0.8310546875,-0.412109375
1969/12/31/18:00:34.169,94,1731185798,829604576,RL_myo,-0.4699994399519003,-0.7379253640382323,-0.4421693211857574,-0.19761825562449722,-10.0,10.4375,10.0625,-0.17724609375,0.83642578125,-0.443359375
1969/12/31/18:00:34.189,95,1731185798,849152651,RL_myo,-0.4698789698325479,-0.7374396145586019,-0.4419266944483023,-0.20024326536181186,1.4375,11.1875,4.5,-0.11181640625,1.091796875,-0.45263671875
1969/12/31/18:00:34.211,96,1731185798,871794692,RL_myo,-0.47147146400237655,-0.7342748457492029,-0.4450446492563534,-0.20122218987907256,-6.25,13.25,-20.375,-0.16455078125,1.1416015625,-0.49267578125
1969/12/31/18:00:34.229,97,1731185798,889660470,RL_myo,-0.4710445819373442,-0.7335429943385515,-0.44803553718606426,-0.19823177016487356,8.1875,5.25,-6.8125,-0.388671875,0.9228515625,-0.548828125
1969/12/31/18:00:34.249,98,1731185798,909152493,RL_myo,-0.47318395208900366,-0.7328156471988478,-0.4474282926305283,-0.19719558225197611,-1.25,-8.6875,-2.875,-0.1953125,1.1025390625,-0.47998046875
1969/12/31/18:00:34.273,99,1731185798,933097470,RL_myo,-0.4737796078202785,-0.7315723507589436,-0.4489402029017092,-0.19694535546000758,1.375,0.375,-17.0,-0.0439453125,0.900390625,-0.40380859375
1969/12/31/18:00:34.302,100,1731185798,962036538,RL_myo,-0.4735946968134622,-0.7310812980835649,-0.4491825990395724,-0.1986534456350283,-2.375,8.0,0.0625,-0.09765625,0.89306640625,-0.44873046875
1969/12/31/18:00:34.312,101,1731185798,972062781,RL_myo,-0.47355843091076777,-0.7306312638784381,-0.4502436583101861,-0.1979924667965628,4.375,2.3125,-4.9375,-0.1787109375,0.88330078125,-0.439453125
1969/12/31/18:00:34.331,102,1731185798,991791803,RL_myo,-0.4725173536205124,-0.7311751351554816,-0.4517051064512287,-0.19512244633489773,14.3125,-4.25,-8.125,-0.193359375,0.85498046875,-0.47705078125
1969/12/31/18:00:34.349,103,1731185799,9687297,RL_myo,-0.470931300380623,-0.7327632442158838,-0.4515227786697575,-0.19341385315010293,17.5,-6.875,-1.0,-0.09619140625,0.8857421875,-0.45556640625
1969/12/31/18:00:34.369,104,1731185799,29184158,RL_myo,-0.47037204170860275,-0.7334190768408303,-0.4511470263799133,-0.19316563020730865,5.0625,-4.0625,-2.125,-0.06103515625,0.90673828125,-0.49560546875
1969/12/31/18:00:34.391,105,1731185799,51694424,RL_myo,-0.4699870073734003,-0.7339999659368764,-0.450945850861194,-0.1923645042515203,-1.625,-6.1875,-1.8125,-0.10595703125,0.8955078125,-0.61181640625
1969/12/31/18:00:34.410,106,1731185799,70843017,RL_myo,-0.47287838335268945,-0.7326929520068451,-0.4496250710066163,-0.1933503766728601,-27.75,-11.5,-7.125,-0.0048828125,0.90234375,-0.6298828125
1969/12/31/18:00:34.429,107,1731185799,89161177,RL_myo,-0.4792905641121483,-0.7286705774780261,-0.4478586730491461,-0.1968307741323925,-52.0,-9.375,-12.75,0.017578125,1.09912109375,-0.6328125
1969/12/31/18:00:34.451,108,1731185799,111763602,RL_myo,-0.4924049799649534,-0.7182228314610277,-0.4471193459622272,-0.20439567152982513,-106.8125,5.1875,-21.625,0.07861328125,1.04150390625,-0.70751953125
1969/12/31/18:00:34.469,109,1731185799,129662974,RL_myo,-0.5077302565408321,-0.7054759027954657,-0.44590422578282485,-0.2137361892542366,-130.5625,8.4375,-22.125,0.04736328125,0.814453125,-0.74267578125
1969/12/31/18:00:34.489,110,1731185799,149138229,RL_myo,-0.524192439101343,-0.6914164795178851,-0.4440591671791096,-0.2235553503816765,-140.1875,6.5,-24.875,0.1513671875,0.861328125,-0.66357421875
1969/12/31/18:00:34.511,111,1731185799,171692537,RL_myo,-0.5393943372185508,-0.6740293120888974,-0.4474202179394881,-0.23356665858060577,-137.5625,29.75,-55.4375,0.37841796875,0.87939453125,-0.51904296875
1969/12/31/18:00:34.529,112,1731185799,189632290,RL_myo,-0.5489137100359962,-0.65553504108257,-0.4577332471947933,-0.2438192430057599,-109.5,67.6875,-79.5625,0.51171875,0.83251953125,-0.419921875
1969/12/31/18:00:34.550,113,1731185799,210715434,RL_myo,-0.5506878086948338,-0.6388173881867257,-0.4733608161628207,-0.2541354355985025,-67.6875,103.0625,-82.6875,0.50439453125,0.64111328125,-0.35205078125
1969/12/31/18:00:34.571,114,1731185799,231736826,RL_myo,-0.5440757855001821,-0.6263432177889364,-0.49372665223740586,-0.2605949079176419,-6.4375,120.375,-88.125,0.4716796875,0.5849609375,-0.3642578125
1969/12/31/18:00:34.589,115,1731185799,249625908,RL_myo,-0.5327456300021256,-0.6148942859745006,-0.519074531237035,-0.2620090491005986,37.8125,130.25,-112.0,0.4375,0.7255859375,-0.2705078125
1969/12/31/18:00:34.610,116,1731185799,270724329,RL_myo,-0.5200023896049571,-0.6015426704162509,-0.5476504039818404,-0.2604284268127174,53.0625,136.9375,-134.75,0.322265625,0.77734375,-0.18505859375
1969/12/31/18:00:34.632,117,1731185799,291849521,RL_myo,-0.5094334444188326,-0.5851130264338503,-0.5751037913931544,-0.2595687599273146,33.625,135.1875,-139.4375,0.1552734375,0.779296875,-0.1201171875
1969/12/31/18:00:34.649,118,1731185799,309523177,RL_myo,-0.5035671641039131,-0.5656357383244537,-0.5983483792115821,-0.26164009605059696,-6.1875,122.3125,-131.9375,0.021484375,0.75830078125,-0.08251953125
1969/12/31/18:00:34.670,119,1731185799,330833366,RL_myo,-0.5016169863308076,-0.5440948330866469,-0.616600123238855,-0.26859914306386234,-49.75,113.9375,-112.75,-0.080078125,0.69580078125,-0.107421875
1969/12/31/18:00:34.694,120,1731185799,354595579,RL_myo,-0.50112449991256,-0.5230345833943052,-0.63057098198716,-0.27872799794186603,-70.625,107.0,-88.375,-0.21484375,0.62353515625,-0.06396484375
1969/12/31/18:00:34.709,121,1731185799,369557437,RL_myo,-0.504171918731602,-0.502524098636486,-0.6394152272789001,-0.2905656101054542,-88.4375,89.3125,-62.6875,-0.3759765625,0.5556640625,-0.07177734375
1969/12/31/18:00:34.736,122,1731185799,396574539,RL_myo,-0.5090676880765196,-0.48532625051966,-0.6424225494177491,-0.3043054181452496,-106.6875,61.5625,-35.0625,-0.544921875,0.5537109375,-0.02392578125
1969/12/31/18:00:34.751,123,1731185799,411723770,RL_myo,-0.5162158512027215,-0.4726994286551287,-0.6379153554943067,-0.32115486037227725,-123.5625,33.0625,10.0625,-0.7099609375,0.560546875,0.0244140625
1969/12/31/18:00:34.769,124,1731185799,429747065,RL_myo,-0.5246951410341703,-0.4659209848382989,-0.6260698798102267,-0.3400722724022795,-130.5625,1.3125,57.0,-0.8095703125,0.54052734375,0.0888671875
1969/12/31/18:00:34.790,125,1731185799,450727143,RL_myo,-0.5396268887692525,-0.4608372129717966,-0.605112033719423,-0.3609311717011263,-169.0625,-48.5,81.1875,-0.83544921875,0.673828125,0.013671875
1969/12/31/18:00:34.811,126,1731185799,471689743,RL_myo,-0.5631215590380584,-0.4540613849835433,-0.5708113082998765,-0.388454397233905,-249.0,-99.125,115.125,-0.9501953125,0.86083984375,0.0068359375
1969/12/31/18:00:34.829,127,1731185799,489701366,RL_myo,-0.586868727852496,-0.4435082201855333,-0.5397532268227407,-0.4093311728064362,-233.25,-100.0,71.625,-0.83837890625,0.685546875,0.041015625
1969/12/31/18:00:34.852,128,1731185799,512127417,RL_myo,-0.6143927259256114,-0.44002896135131203,-0.5003269660413393,-0.42257427578314627,-213.0625,-176.125,77.25,-0.61083984375,0.5615234375,0.22216796875
1969/12/31/18:00:34.871,129,1731185799,531682296,RL_myo,-0.6410687792969135,-0.4390564354781032,-0.45620612388084814,-0.43374674547440634,-207.875,-202.3125,89.5,-0.52880859375,0.77197265625,0.28466796875
1969/12/31/18:00:34.889,130,1731185799,549697272,RL_myo,-0.6640825105005607,-0.44272167366704046,-0.41470826751689277,-0.4370457547738733,-156.875,-215.625,77.1875,-0.66064453125,0.99267578125,0.2666015625
1969/12/31/18:00:34.912,131,1731185799,572072234,RL_myo,-0.6853442564175148,-0.44688669030982664,-0.374806223052806,-0.4360227418155424,-134.9375,-218.6875,64.8125,-0.8095703125,1.041015625,0.42919921875
1969/12/31/18:00:34.932,132,1731185799,592306575,RL_myo,-0.7089839224016039,-0.4482033163568373,-0.32864581407701104,-0.43410541792567864,-165.4375,-244.25,63.75,-0.64501953125,0.865234375,0.46875
1969/12/31/18:00:34.948,133,1731185799,608101931,RL_myo,-0.7303771506247909,-0.4443783766774549,-0.28392366547225933,-0.4341248995064877,-184.875,-218.0,65.9375,-0.76708984375,1.05712890625,0.36962890625
1969/12/31/18:00:34.969,134,1731185799,629157199,RL_myo,-0.7462890214768986,-0.44308621981700064,-0.23985245783482265,-0.43496907556966435,-159.8125,-210.125,83.6875,-0.58740234375,1.08837890625,0.44970703125
1969/12/31/18:00:34.991,135,1731185799,651760864,RL_myo,-0.7586598489294166,-0.4431720967881331,-0.19915583966666828,-0.4340169095524603,-133.125,-198.9375,77.375,-0.50244140625,1.01025390625,0.51953125
1969/12/31/18:00:35.015,136,1731185799,675661602,RL_myo,-0.7680875237636055,-0.4441907825150195,-0.1613075347880182,-0.43210644960240974,-114.5,-186.5625,72.0,-0.26220703125,1.1005859375,0.55224609375
1969/12/31/18:00:35.029,137,1731185799,689169602,RL_myo,-0.7733368375810612,-0.4455948426469361,-0.12853345276187475,-0.43228986035724537,-91.9375,-155.8125,78.125,-0.17529296875,1.0908203125,0.55517578125
1969/12/31/18:00:35.051,138,1731185799,711749912,RL_myo,-0.7740735729195906,-0.44675696237257767,-0.10021515467428586,-0.4372359123548014,-72.875,-121.3125,101.1875,-0.24169921875,1.076171875,0.63037109375
1969/12/31/18:00:35.068,139,1731185799,728147680,RL_myo,-0.7738416942471923,-0.4443227016420506,-0.07311793908889788,-0.44542130172852823,-87.6875,-97.0,111.875,-0.0302734375,1.36669921875,0.71435546875
1969/12/31/18:00:35.089,140,1731185799,749236191,RL_myo,-0.7762461625760831,-0.4297153259452946,-0.0432705817490717,-0.45925405876130404,-159.625,-60.5625,128.4375,0.390625,1.43115234375,0.7275390625
1969/12/31/18:00:35.111,141,1731185799,771703900,RL_myo,-0.7774871328337647,-0.4097691035282123,-0.016783810466228535,-0.4767822813170084,-171.875,-19.25,134.5,0.703125,1.21533203125,0.72412109375
1969/12/31/18:00:35.128,142,1731185799,788184542,RL_myo,-0.7782634065121207,-0.3920611765553531,-0.00048824554988213337,-0.49050368555033824,-129.5,8.625,96.625,0.4375,0.8349609375,0.65869140625
1969/12/31/18:00:35.149,143,1731185799,809279033,RL_myo,-0.7777920308270463,-0.3789477965634911,0.007629002185607406,-0.5013780236381187,-79.375,4.0625,85.0,-0.00244140625,0.60791015625,0.76611328125
1969/12/31/18:00:35.171,144,1731185799,831702691,RL_myo,-0.7735212720307646,-0.3758969160831213,0.009765141512144733,-0.5101676118751114,7.4375,-6.375,66.4375,-0.05908203125,0.275390625,0.779296875
1969/12/31/18:00:35.188,145,1731185799,847937265,RL_myo,-0.7596060246011999,-0.39792955812307756,0.0015258035204105734,-0.514439914941629,159.4375,-19.4375,36.0,0.54443359375,0.181640625,0.90478515625
1969/12/31/18:00:35.209,146,1731185799,869221141,RL_myo,-0.739280756196547,-0.43167941786330194,-0.02136120405091979,-0.5163918499280924,263.4375,7.5625,11.4375,0.6513671875,0.4013671875,0.5859375
1969/12/31/18:00:35.239,147,1731185799,899750823,RL_myo,-0.7208826433760848,-0.4585770557338216,-0.04479578904825992,-0.5177148208397669,230.625,25.625,3.4375,0.5888671875,0.72607421875,0.75927734375
1969/12/31/18:00:35.248,148,1731185799,908191721,RL_myo,-0.7043142473885613,-0.48465853020039557,-0.06908871126896458,-0.5140761616771102,223.625,15.5625,-19.3125,0.08642578125,0.7294921875,0.427734375
1969/12/31/18:00:35.269,149,1731185799,929223468,RL_myo,-0.6878278919324223,-0.5043054011568416,-0.08355247418416026,-0.5153521490219498,167.25,10.25,21.75,0.3642578125,0.7666015625,0.4677734375
1969/12/31/18:00:35.291,150,1731185799,951790030,RL_myo,-0.6749559123017662,-0.5168823240151603,-0.09264699112705319,-0.518347098578434,112.5,13.5625,29.0625,0.427734375,0.7578125,0.453125
1969/12/31/18:00:35.308,151,1731185799,968132223,RL_myo,-0.6662808812873766,-0.5250539911802968,-0.09807761987989505,-0.5203545657100094,77.6875,8.5,14.375,0.4951171875,0.697265625,0.4697265625
1969/12/31/18:00:35.329,152,1731185799,989315131,RL_myo,-0.658910626681005,-0.5273848393062768,-0.09814081953529603,-0.5273238064583071,34.75,21.875,36.125,0.642578125,0.75537109375,0.5322265625
1969/12/31/18:00:35.351,153,1731185800,11757045,RL_myo,-0.6549209953043246,-0.5267564169668834,-0.09832054081029418,-0.5328594921258091,12.6875,22.75,23.375,0.5537109375,0.73583984375,0.50146484375
1969/12/31/18:00:35.368,154,1731185800,28045194,RL_myo,-0.6538976406065008,-0.5240824192540622,-0.09844473532744874,-0.5367160585676282,-2.375,20.0,10.625,0.47412109375,0.69921875,0.4921875
1969/12/31/18:00:35.405,155,1731185800,64812160,RL_myo,-0.6551039899550869,-0.5198598645833268,-0.09752712650905802,-0.5395117636671295,-16.625,15.5625,3.1875,0.42041015625,0.6396484375,0.4912109375
1969/12/31/18:00:35.414,156,1731185800,74790902,RL_myo,-0.6570767298086272,-0.5159694105333582,-0.09533288611936426,-0.5412368976354176,-22.0625,6.9375,0.375,0.412109375,0.5966796875,0.458984375
1969/12/31/18:00:35.428,157,1731185800,88168019,RL_myo,-0.6587345435651935,-0.5128644834224331,-0.09222161542916774,-0.5427098639286296,-20.9375,1.25,1.9375,0.4443359375,0.59716796875,0.46337890625
1969/12/31/18:00:35.449,158,1731185800,109129478,RL_myo,-0.6603206532194061,-0.5104225550303997,-0.0893529380084306,-0.5435637062179528,-16.8125,-0.9375,-1.6875,0.4765625,0.61083984375,0.48388671875
