time,.header.seq,.header.stamp.secs,.header.stamp.nsecs,.header.frame_id,.orientation.x,.orientation.y,.orientation.z,.orientation.w,.angular_velocity.x,.angular_velocity.y,.angular_velocity.z,.linear_acceleration.x,.linear_acceleration.y,.linear_acceleration.z
1969/12/31/18:00:05.774,1,1731185770,433710318,RL_myo,-0.7342750331033179,-0.5350058133308689,0.1033270410642438,-0.4048857592558732,14.5,-5.4375,-4.8125,0.5703125,0.64013671875,0.404296875
1969/12/31/18:00:05.788,2,1731185770,448091413,RL_myo,-0.7327054017519928,-0.5376428058336781,0.10241396619240682,-0.4044680297717998,19.3125,-5.3125,-3.625,0.5634765625,0.65771484375,0.40625
1969/12/31/18:00:05.811,3,1731185770,471312217,RL_myo,-0.7307405888643268,-0.5414792035750695,0.10131373736864466,-0.40317984882967867,25.5,-10.0625,-8.0,0.59814453125,0.68798828125,0.41748046875
1969/12/31/18:00:05.834,4,1731185770,494391325,RL_myo,-0.7296035694143891,-0.5456463033766638,0.099668950046319,-0.4000185539519747,27.0625,-13.25,-23.8125,0.666015625,0.68017578125,0.44189453125
1969/12/31/18:00:05.856,5,1731185770,516223573,RL_myo,-0.7295957229478873,-0.5500958884832949,0.09539552576271941,-0.39494846270669054,28.1875,-7.6875,-42.75,0.6826171875,0.72607421875,0.431640625
1969/12/31/18:00:05.871,6,1731185770,531410415,RL_myo,-0.729703167652024,-0.5550895207255904,0.0877035339508162,-0.389508666439881,35.1875,6.125,-55.375,0.744140625,0.8515625,0.42919921875
1969/12/31/18:00:05.894,7,1731185770,553811112,RL_myo,-0.7300222021934241,-0.5598606856216268,0.0756815927363804,-0.3845723514773652,42.8125,28.6875,-70.875,0.90966796875,1.04541015625,0.48779296875
1969/12/31/18:00:05.914,8,1731185770,574749974,RL_myo,-0.732568795770191,-0.5625942813804565,0.05682092384087709,-0.3789485672696089,34.875,61.8125,-92.6875,0.89013671875,1.310546875,0.47216796875
1969/12/31/18:00:05.932,9,1731185770,592145903,RL_myo,-0.7384103304983048,-0.5605058662117887,0.03136977517779392,-0.3736298903471876,22.5,97.8125,-114.3125,0.740234375,1.517578125,0.43505859375
1969/12/31/18:00:05.959,10,1731185770,619630101,RL_myo,-0.7474037919693177,-0.55417494945953,0.00036619490052391853,-0.3664390304576012,4.9375,123.5625,-144.125,0.43603515625,1.47705078125,0.361328125
1969/12/31/18:00:05.978,11,1731185770,638148836,RL_myo,-0.7580671938621026,-0.543420843261264,-0.032712665317614284,-0.3591069453896314,-16.6875,140.9375,-153.125,0.17822265625,1.392578125,0.26123046875
1969/12/31/18:00:05.991,12,1731185770,651101284,RL_myo,-0.7664488774390582,-0.5334869913756018,-0.06921110264499857,-0.3509381306955395,1.125,151.625,-163.25,0.06884765625,1.31298828125,0.22021484375
1969/12/31/18:00:06.014,13,1731185770,673824842,RL_myo,-0.7709783543161219,-0.5269654141201232,-0.1104710909841815,-0.34014109947781407,42.0,158.625,-181.5,-0.00244140625,1.09765625,0.32470703125
1969/12/31/18:00:06.035,14,1731185770,694874472,RL_myo,-0.7680796044952148,-0.5274940025150688,-0.15770502169373343,-0.32700600086494724,111.1875,168.3125,-191.25,-0.14111328125,0.95751953125,0.38037109375
1969/12/31/18:00:06.051,15,1731185770,711603112,RL_myo,-0.7616664565662025,-0.5291384758356551,-0.20726116077714934,-0.31131895792822106,133.4375,170.9375,-198.6875,-0.40576171875,0.919921875,0.32470703125
1969/12/31/18:00:06.074,16,1731185770,733803184,RL_myo,-0.7524628872992992,-0.532686842432337,-0.2546863191418587,-0.29185477549397754,151.0625,149.5,-198.8125,-0.66357421875,0.9169921875,0.267578125
1969/12/31/18:00:06.095,17,1731185770,754989172,RL_myo,-0.7419039899783725,-0.5350668213343527,-0.29997187485551996,-0.27073758633959033,150.0,139.1875,-197.8125,-0.814453125,0.98388671875,0.28857421875
1969/12/31/18:00:06.112,18,1731185770,772073706,RL_myo,-0.731699339210809,-0.5331658543119215,-0.34476349713919924,-0.24796850573138016,135.25,139.5,-210.75,-0.89599609375,0.857421875,0.3642578125
1969/12/31/18:00:06.133,19,1731185770,793694118,RL_myo,-0.7187057254071986,-0.5314614008870486,-0.3857794573963062,-0.22844051717044364,133.9375,139.6875,-181.25,-0.9521484375,0.76318359375,0.36669921875
1969/12/31/18:00:06.155,20,1731185770,814897775,RL_myo,-0.7025475715705737,-0.5309235796275233,-0.42332290473577444,-0.21294313936319448,137.4375,145.1875,-148.25,-0.87890625,0.62548828125,0.4599609375
1969/12/31/18:00:06.171,21,1731185770,831685568,RL_myo,-0.6873350064297159,-0.5287755723412412,-0.4554158957537329,-0.2014034382186168,111.5625,136.1875,-121.25,-0.8408203125,0.51611328125,0.44677734375
1969/12/31/18:00:06.194,22,1731185770,853793866,RL_myo,-0.6728719561680157,-0.5279832465133336,-0.48050076289440247,-0.1938969800222935,96.8125,118.25,-82.5625,-0.77490234375,0.4443359375,0.451171875
1969/12/31/18:00:06.215,23,1731185770,874836070,RL_myo,-0.6619729167259863,-0.5287971003608654,-0.4966322721186936,-0.1884724660565965,97.125,90.3125,-25.5625,-0.65771484375,0.33642578125,0.42724609375
1969/12/31/18:00:06.231,24,1731185770,891310951,RL_myo,-0.6475304593194461,-0.5395680292971935,-0.504536692478215,-0.18711860398429989,103.125,59.0,23.0,-0.533203125,0.267578125,0.37158203125
1969/12/31/18:00:06.254,25,1731185770,914663673,RL_myo,-0.6367578364211458,-0.5523491248549189,-0.5042550795084354,-0.18755457024079183,95.9375,27.6875,66.5,-0.3740234375,0.259765625,0.23779296875
1969/12/31/18:00:06.274,26,1731185770,934966571,RL_myo,-0.6258742856774872,-0.5702138908907618,-0.4963051868483009,-0.19188188729107944,79.5625,-2.25,105.875,-0.255859375,0.34326171875,0.00537109375
1969/12/31/18:00:06.292,27,1731185770,951750754,RL_myo,-0.6162219236008352,-0.5917488136311476,-0.48097900167358437,-0.19688342334716194,77.5,-34.875,140.4375,-0.21923828125,0.4853515625,-0.0869140625
1969/12/31/18:00:06.314,28,1731185770,973983810,RL_myo,-0.6028619876271512,-0.618607927372829,-0.4638338839812056,-0.1968242468209721,120.8125,-55.3125,143.125,-0.00390625,0.70751953125,-0.17919921875
1969/12/31/18:00:06.335,29,1731185770,995008515,RL_myo,-0.5869457943321058,-0.6456586833980812,-0.4508441907800006,-0.1880399284950835,160.9375,-65.8125,96.0,0.33544921875,0.85791015625,-0.09033203125
1969/12/31/18:00:06.351,30,1731185771,11231558,RL_myo,-0.5698631325978117,-0.6700179361313888,-0.44065672243292286,-0.1793143283251977,158.5,-51.5,78.0625,0.51318359375,0.76513671875,-0.12646484375
1969/12/31/18:00:06.374,31,1731185771,33850722,RL_myo,-0.5538065451873797,-0.6904577304060863,-0.42869045331674616,-0.18108265589276565,110.5625,-16.5,109.1875,0.47802734375,0.7265625,-0.32177734375
1969/12/31/18:00:06.394,32,1731185771,54852107,RL_myo,-0.5410923050844357,-0.7059344341204228,-0.4162248500649506,-0.18876590340922172,65.6875,2.25,115.375,0.4169921875,0.884765625,-0.4619140625
1969/12/31/18:00:06.411,33,1731185771,71323686,RL_myo,-0.528415823462134,-0.719202132556917,-0.4051920364940064,-0.19835428808638664,50.0625,5.25,84.125,0.4248046875,0.802734375,-0.43505859375
1969/12/31/18:00:06.433,34,1731185771,93761642,RL_myo,-0.5229237039104805,-0.7246960854613731,-0.3964650304157891,-0.21019482216009508,-5.125,15.1875,58.3125,0.40478515625,0.79736328125,-0.4228515625
1969/12/31/18:00:06.454,35,1731185771,114862368,RL_myo,-0.5190162467252903,-0.726769222248913,-0.3928630738676733,-0.21928802616227283,-16.0,25.3125,34.125,0.18505859375,0.873046875,-0.548828125
1969/12/31/18:00:06.470,36,1731185771,130779737,RL_myo,-0.5124805000830764,-0.7306676845295452,-0.3916993985391431,-0.2237410400505607,9.125,21.375,30.375,0.00634765625,0.826171875,-0.61474609375
1969/12/31/18:00:06.494,37,1731185771,153876662,RL_myo,-0.5063216679764274,-0.7353138206099322,-0.38828573428954094,-0.22844286442089778,15.0,14.25,40.4375,0.04736328125,0.7451171875,-0.45361328125
1969/12/31/18:00:06.516,38,1731185771,176348642,RL_myo,-0.5022324157598363,-0.7385483610535641,-0.3838303150703136,-0.23448498497378675,-0.3125,13.8125,41.375,0.0751953125,0.849609375,-0.4736328125
1969/12/31/18:00:06.530,39,1731185771,190631905,RL_myo,-0.49220988478169975,-0.7459741378408824,-0.38143977431935816,-0.23612647789465546,41.5,11.8125,44.5625,-0.015625,0.77197265625,-0.58154296875
1969/12/31/18:00:06.555,40,1731185771,215317727,RL_myo,-0.4797245538739996,-0.7557797901554373,-0.37535699826019053,-0.2403505462030293,57.0,12.875,72.5625,0.06201171875,0.73291015625,-0.44482421875
1969/12/31/18:00:06.569,41,1731185771,229423620,RL_myo,-0.4691425486961995,-0.7630661228500822,-0.36807580475956536,-0.24931017450552553,45.4375,24.25,71.75,0.26611328125,0.97265625,-0.3330078125
1969/12/31/18:00:06.589,42,1731185771,249830554,RL_myo,-0.4568872162723081,-0.7687618723171243,-0.36942804169066,-0.2525513359517514,57.75,31.8125,24.375,0.181640625,0.96630859375,-0.59228515625
1969/12/31/18:00:06.612,43,1731185771,272271202,RL_myo,-0.4514457012234326,-0.7692947227147989,-0.37845272316973166,-0.2472972801618695,64.1875,17.0625,-32.0,-0.12744140625,1.6376953125,-0.64306640625
1969/12/31/18:00:06.629,44,1731185771,288899587,RL_myo,-0.4443840486712011,-0.7707295380606961,-0.38884367175995366,-0.2393729211493546,76.75,10.1875,-43.375,-0.12744140625,1.11376953125,-0.46337890625
1969/12/31/18:00:06.649,45,1731185771,309523020,RL_myo,-0.4475289741400017,-0.770435806565305,-0.3824715779265499,-0.24466707450255923,-46.3125,5.6875,44.9375,-0.09716796875,0.96923828125,-0.708984375
1969/12/31/18:00:06.672,46,1731185771,332262548,RL_myo,-0.45347595992638057,-0.7698715691132388,-0.3720577996919537,-0.2514563869309136,-54.125,-6.9375,57.9375,-0.01318359375,1.0146484375,-0.48193359375
1969/12/31/18:00:06.689,47,1731185771,348844229,RL_myo,-0.45548794333946885,-0.7697459388178187,-0.36729551695255575,-0.2551782247222724,-23.625,-2.25,23.375,0.1279296875,0.904296875,-0.45654296875
1969/12/31/18:00:06.709,48,1731185771,369753765,RL_myo,-0.44993049403668706,-0.772913697297966,-0.3680861108973494,-0.2543218080101567,23.0625,7.8125,11.875,0.0,0.71240234375,-0.5771484375
1969/12/31/18:00:06.732,49,1731185771,392217482,RL_myo,-0.4410755069683778,-0.7780310727594963,-0.3692412919826602,-0.25254883739243766,54.875,12.125,24.8125,-0.115234375,0.7333984375,-0.45458984375
1969/12/31/18:00:06.748,50,1731185771,408648871,RL_myo,-0.4295410622636516,-0.7851117114179617,-0.371194762814369,-0.2476055824955434,78.0,4.4375,22.8125,-0.14208984375,0.76806640625,-0.53076171875
1969/12/31/18:00:06.770,51,1731185771,429833494,RL_myo,-0.41958373924868786,-0.7922351300635951,-0.37222417828039955,-0.2403375658416484,72.8125,-11.0625,18.6875,-0.13525390625,0.82080078125,-0.62646484375
1969/12/31/18:00:06.792,52,1731185771,452145604,RL_myo,-0.41373398682718676,-0.7972572753980736,-0.3717441678366123,-0.23454487555345607,53.0,-16.6875,15.3125,-0.06494140625,0.955078125,-0.5810546875
1969/12/31/18:00:06.808,53,1731185771,468807476,RL_myo,-0.41293769131779473,-0.7995708977171784,-0.3702157900581943,-0.23045414165178732,21.9375,-21.3125,8.0625,-0.0009765625,1.04541015625,-0.5888671875
1969/12/31/18:00:06.829,54,1731185771,489769876,RL_myo,-0.4154955809315063,-0.800170764041272,-0.36722046275923526,-0.22855918780677015,-5.8125,-18.6875,12.5625,-0.017578125,1.029296875,-0.60693359375
1969/12/31/18:00:06.852,55,1731185771,512201549,RL_myo,-0.41916271480395606,-0.7998757338702167,-0.36386839045736546,-0.2282569239031444,-18.875,-13.1875,14.9375,-0.0244140625,1.0029296875,-0.61328125
1969/12/31/18:00:06.869,56,1731185771,528855577,RL_myo,-0.422462761105704,-0.7995177940602026,-0.36008816679047295,-0.2294188845704047,-23.875,-8.5,17.875,0.021484375,0.908203125,-0.58837890625
1969/12/31/18:00:06.889,57,1731185771,549845895,RL_myo,-0.42484317899455926,-0.799640185488682,-0.3559381439299339,-0.23106684034957642,-22.25,-6.75,20.625,0.0615234375,0.912109375,-0.6171875
1969/12/31/18:00:06.912,58,1731185771,572252049,RL_myo,-0.42440752643717533,-0.8009059490128058,-0.35336778516986556,-0.23142843546876168,-5.1875,-4.1875,17.0625,0.04736328125,0.828125,-0.625
1969/12/31/18:00:06.928,59,1731185771,588830031,RL_myo,-0.42062475308326974,-0.803837583119522,-0.3521481174246179,-0.23002534741306496,20.125,-1.6875,18.9375,-0.029296875,0.7685546875,-0.59033203125
1969/12/31/18:00:06.949,60,1731185771,609858637,RL_myo,-0.4157989562155486,-0.8070637600167936,-0.3515341241452458,-0.22843615046452348,27.375,0.875,17.3125,-0.01953125,0.8076171875,-0.619140625
1969/12/31/18:00:06.972,61,1731185771,632216736,RL_myo,-0.41214040144152164,-0.8095724011730764,-0.3519641189268851,-0.2255084826486632,29.9375,-2.25,10.4375,-0.07568359375,0.9990234375,-0.66162109375
1969/12/31/18:00:06.989,62,1731185771,648889117,RL_myo,-0.4111667854291136,-0.8106155921136243,-0.3539806079098796,-0.22032241285425266,17.0,-9.875,-5.875,-0.12841796875,1.044921875,-0.76953125
1969/12/31/18:00:07.010,63,1731185771,669857695,RL_myo,-0.413979439820785,-0.8094662111666036,-0.3563653175753448,-0.2153816074196595,2.6875,-18.5,-23.8125,-0.0078125,1.1181640625,-0.67626953125
1969/12/31/18:00:07.032,64,1731185771,692242612,RL_myo,-0.41849350804536045,-0.8061050392683565,-0.3613069225067134,-0.21098615390299127,-5.9375,-13.625,-44.8125,0.0361328125,1.1572265625,-0.650390625
1969/12/31/18:00:07.049,65,1731185771,708913952,RL_myo,-0.42466120949770736,-0.8013512044703791,-0.36857272839273564,-0.20409127400982083,-7.3125,-13.5625,-54.6875,-0.1923828125,1.1904296875,-0.63525390625
1969/12/31/18:00:07.070,66,1731185771,729910517,RL_myo,-0.43289911639072354,-0.7957336359089601,-0.3762615328561696,-0.194508597763603,-14.0625,-25.75,-64.5625,-0.2861328125,1.14013671875,-0.61328125
1969/12/31/18:00:07.092,67,1731185771,752309528,RL_myo,-0.44291068392898064,-0.7887801679892719,-0.3844418352030659,-0.18401208654345827,-21.375,-33.875,-79.0625,-0.2421875,1.076171875,-0.5263671875
1969/12/31/18:00:07.108,68,1731185771,768727244,RL_myo,-0.453460562662428,-0.7807699835989826,-0.39273468650507726,-0.17473184265175387,-25.875,-30.25,-82.375,-0.22265625,0.982421875,-0.39404296875
1969/12/31/18:00:07.137,69,1731185771,797472665,RL_myo,-0.46432056932129884,-0.7723418513092846,-0.40042156352747654,-0.16600314781203113,-34.3125,-26.625,-75.0625,-0.31494140625,0.87109375,-0.37890625
1969/12/31/18:00:07.145,70,1731185771,805684180,RL_myo,-0.47464679205123583,-0.7640611019274041,-0.40793868562047836,-0.15654738608864857,-33.0625,-28.0,-72.1875,-0.3818359375,0.76171875,-0.3515625
1969/12/31/18:00:07.169,71,1731185771,828840201,RL_myo,-0.48295727783326586,-0.7563869005671255,-0.41551537311877595,-0.14825012357601453,-28.625,-22.25,-71.6875,-0.296875,0.654296875,-0.333984375
1969/12/31/18:00:07.189,72,1731185771,849816744,RL_myo,-0.4891664426725792,-0.749831430402409,-0.4223370908664065,-0.1417758760235061,-18.5625,-14.3125,-62.875,-0.2373046875,0.609375,-0.25341796875
1969/12/31/18:00:07.205,73,1731185771,865641162,RL_myo,-0.49563555389869723,-0.7440331286268954,-0.42685322792359176,-0.1362219623570856,-20.0625,-14.3125,-43.5,-0.3642578125,0.705078125,-0.27734375
1969/12/31/18:00:07.228,74,1731185771,888175328,RL_myo,-0.5002191429133183,-0.7405025452619926,-0.42929983543829686,-0.13091386792936405,-15.625,-19.25,-28.625,-0.328125,0.62939453125,-0.3583984375
1969/12/31/18:00:07.249,75,1731185771,909863314,RL_myo,-0.5035055413528134,-0.7381086081358699,-0.43039043365091406,-0.1282260778645165,-12.9375,-14.6875,-21.0625,-0.1591796875,0.57568359375,-0.3037109375
1969/12/31/18:00:07.274,76,1731185771,933847307,RL_myo,-0.5071739994893647,-0.7356159104506994,-0.43094532014373094,-0.12621369806787078,-17.5,-12.0625,-13.0625,-0.2587890625,0.6494140625,-0.34326171875
1969/12/31/18:00:07.288,77,1731185771,948110567,RL_myo,-0.5109005693597193,-0.734217399282932,-0.42942257866622685,-0.12450569364398845,-19.75,-18.5625,-0.0625,-0.27978515625,0.70166015625,-0.4208984375
1969/12/31/18:00:07.311,78,1731185771,971389393,RL_myo,-0.5112789294794771,-0.7355165786268566,-0.42668628339393866,-0.12469175754167024,-11.1875,-16.0,7.75,-0.07275390625,0.64599609375,-0.51416015625
1969/12/31/18:00:07.325,79,1731185771,985814091,RL_myo,-0.5105788357169886,-0.737367139987169,-0.4240379811811662,-0.1256612267202103,-0.9375,-9.9375,9.0,-0.03466796875,0.69677734375,-0.44873046875
1969/12/31/18:00:07.348,80,1731185772,8095796,RL_myo,-0.5099375748051235,-0.7393637081016475,-0.4210112975470666,-0.12670621248299654,-5.375,-9.8125,15.3125,-0.13037109375,0.79931640625,-0.56787109375
1969/12/31/18:00:07.372,81,1731185772,32433965,RL_myo,-0.5083427479069802,-0.7429530880383804,-0.4162441518460326,-0.1278638560289499,-0.1875,-16.125,23.6875,-0.0498046875,0.7724609375,-0.58740234375
1969/12/31/18:00:07.385,82,1731185772,45697550,RL_myo,-0.5059618309522518,-0.7466751555934679,-0.4111779077352618,-0.13195289246306013,-0.4375,-7.0,23.875,0.1220703125,0.826171875,-0.56396484375
1969/12/31/18:00:07.408,83,1731185772,68127025,RL_myo,-0.5031983678588193,-0.7497625165731469,-0.4078683677865967,-0.1352440974136014,3.8125,0.0625,19.4375,0.013671875,0.87060546875,-0.5703125
1969/12/31/18:00:07.431,84,1731185772,91371658,RL_myo,-0.5007067628350177,-0.7528911051112601,-0.4042761576083809,-0.13787135266264078,0.375,-2.4375,24.9375,-0.08984375,0.919921875,-0.66015625
1969/12/31/18:00:07.453,85,1731185772,113177897,RL_myo,-0.4982026551453905,-0.7562451427056883,-0.40018557023010237,-0.14049522383249896,1.75,-4.75,24.1875,-0.01220703125,0.8544921875,-0.61279296875
1969/12/31/18:00:07.476,86,1731185772,136422890,RL_myo,-0.4961422669545497,-0.7587699179208958,-0.39677953960776574,-0.14379520001782742,4.75,0.375,19.25,0.01171875,0.94384765625,-0.525390625
1969/12/31/18:00:07.498,87,1731185772,158816466,RL_myo,-0.4938784091932963,-0.7608974453055888,-0.395127140523653,-0.14489215810984743,9.0,1.125,14.0625,-0.14794921875,1.00146484375,-0.59130859375
1969/12/31/18:00:07.513,88,1731185772,173368882,RL_myo,-0.4926368046581797,-0.7625739437814613,-0.39364561323652864,-0.14433672485339383,4.8125,-7.0,8.125,-0.17333984375,1.01806640625,-0.6455078125
1969/12/31/18:00:07.536,89,1731185772,196261925,RL_myo,-0.4925125830113506,-0.7637911990566361,-0.3911416535960032,-0.14512948232973877,-4.375,-9.625,8.125,-0.04443359375,0.93115234375,-0.58056640625
1969/12/31/18:00:07.559,90,1731185772,218820637,RL_myo,-0.4927129573350246,-0.7647334764533456,-0.3879817007034252,-0.14794205482225936,-9.4375,-3.125,14.6875,-0.017578125,0.88720703125,-0.517578125
1969/12/31/18:00:07.573,91,1731185772,233655391,RL_myo,-0.4933339919491739,-0.7651773174646533,-0.3854877512249143,-0.15008144082679928,-10.1875,-0.375,16.1875,-0.12890625,0.8720703125,-0.5
1969/12/31/18:00:07.596,92,1731185772,256214793,RL_myo,-0.49326225173595084,-0.766076192005649,-0.3836484180168507,-0.15044437645745098,-1.6875,-3.9375,12.6875,-0.169921875,0.86474609375,-0.5
1969/12/31/18:00:07.618,93,1731185772,278965582,RL_myo,-0.4905011907989135,-0.7684335564699665,-0.38223329077685647,-0.1510501987342679,14.125,0.375,11.375,-0.07080078125,0.81103515625,-0.47607421875
1969/12/31/18:00:07.641,94,1731185772,301476670,RL_myo,-0.48569599467659225,-0.770778426334592,-0.3826732704978931,-0.15349653513591727,36.125,17.25,4.5625,-0.029296875,1.19140625,-0.4423828125
1969/12/31/18:00:07.656,95,1731185772,316486101,RL_myo,-0.4748231542152404,-0.7754020789594639,-0.3879146488678751,-0.1510523530440514,65.0,25.0625,-5.9375,-0.22119140625,0.95361328125,-0.65771484375
1969/12/31/18:00:07.679,96,1731185772,339303020,RL_myo,-0.46774817719224704,-0.7792547920655807,-0.390787001378126,-0.14580511421089223,49.875,0.875,-4.1875,-0.29833984375,0.9736328125,-0.703125
1969/12/31/18:00:07.693,97,1731185772,353218604,RL_myo,-0.4649893448851283,-0.7820414050870237,-0.389189795554858,-0.14397031954114944,28.0,-12.0625,4.0,-0.05810546875,1.07763671875,-0.5859375
1969/12/31/18:00:07.716,98,1731185772,376192184,RL_myo,-0.4653701283294553,-0.7822490406293283,-0.3880423968417937,-0.14470722285496898,1.6875,-3.875,0.875,-0.0439453125,0.9345703125,-0.4931640625
1969/12/31/18:00:07.739,99,1731185772,398887663,RL_myo,-0.46633470316183134,-0.7821069521029799,-0.386689789194263,-0.1459851603145008,-3.5,0.4375,7.8125,-0.1171875,0.78662109375,-0.400390625
1969/12/31/18:00:07.761,100,1731185772,421315093,RL_myo,-0.4662859709517301,-0.7821886130520121,-0.38621173091394606,-0.14696552592300602,4.125,3.375,3.6875,-0.10986328125,0.84228515625,-0.412109375
1969/12/31/18:00:07.776,101,1731185772,436322530,RL_myo,-0.4662291328343275,-0.7817073875300519,-0.38725276185807145,-0.14696684799909157,6.0625,5.125,-4.375,-0.166015625,0.9267578125,-0.47021484375
1969/12/31/18:00:07.798,102,1731185772,458685544,RL_myo,-0.46640872506624903,-0.7812132531860753,-0.38847049660385696,-0.14580612983293234,4.0625,2.125,-4.0,-0.240234375,0.87109375,-0.4990234375
1969/12/31/18:00:07.813,103,1731185772,473154500,RL_myo,-0.46590497625299704,-0.7817365523741996,-0.3884575810650152,-0.14464170732507245,3.9375,-3.5,1.125,-0.177734375,0.82861328125,-0.5498046875
1969/12/31/18:00:07.836,104,1731185772,496284919,RL_myo,-0.46609703997558743,-0.7820567592310039,-0.3876716509002136,-0.14440036618858712,-0.4375,-6.6875,-1.25,-0.07177734375,0.92431640625,-0.580078125
1969/12/31/18:00:07.858,105,1731185772,518797651,RL_myo,-0.467330040984311,-0.7813450678700731,-0.3876208815843489,-0.14440418923454093,-8.0625,-3.4375,-3.75,-0.12158203125,0.8994140625,-0.5703125
1969/12/31/18:00:07.873,106,1731185772,533213296,RL_myo,-0.46958536439913234,-0.780424753648519,-0.38670299828865384,-0.1445253629967696,-15.8125,-4.75,2.875,-0.18408203125,0.87060546875,-0.56591796875
1969/12/31/18:00:07.896,107,1731185772,556355386,RL_myo,-0.4714115629358417,-0.7796844531985212,-0.3859056593013111,-0.1447069932316003,-14.6875,-4.5625,2.6875,-0.16259765625,0.83203125,-0.56884765625
1969/12/31/18:00:07.918,108,1731185772,578689780,RL_myo,-0.4729950645909387,-0.7791907083396793,-0.3849874667664054,-0.14464494233297095,-9.125,-4.8125,2.6875,-0.1748046875,0.9169921875,-0.546875
1969/12/31/18:00:07.940,109,1731185772,599856399,RL_myo,-0.4730058051323336,-0.7792084018225165,-0.3854844729310734,-0.14318343468909092,4.0625,-4.4375,-4.75,-0.16943359375,0.88427734375,-0.52880859375
1969/12/31/18:00:07.956,110,1731185772,616707511,RL_myo,-0.47160014344076495,-0.7800597170074307,-0.38609324542594525,-0.1415349725170356,9.5,-1.8125,-0.8125,-0.19580078125,0.81103515625,-0.54931640625
1969/12/31/18:00:07.978,111,1731185772,638631484,RL_myo,-0.4698219514180861,-0.7813887300605036,-0.3858423456566823,-0.14080010936886525,14.375,-0.75,3.8125,-0.15478515625,0.88671875,-0.52294921875
1969/12/31/18:00:07.999,112,1731185772,659857537,RL_myo,-0.46922119238430926,-0.7814656799282903,-0.3864605346224566,-0.14068091160845902,7.5,3.625,-1.5,-0.17724609375,0.939453125,-0.51025390625
1969/12/31/18:00:08.016,113,1731185772,676266359,RL_myo,-0.46944363915818427,-0.7811244328634426,-0.38723607520263637,-0.13969793162156574,3.6875,0.9375,-1.9375,-0.2431640625,0.92626953125,-0.5283203125
1969/12/31/18:00:08.038,114,1731185772,698862499,RL_myo,-0.47006988825712326,-0.7807847416870135,-0.3875543742447069,-0.1386040919542881,-1.125,-3.25,-2.5,-0.2041015625,0.85986328125,-0.53271484375
1969/12/31/18:00:08.059,115,1731185772,719871459,RL_myo,-0.47135190387853143,-0.7802970466252783,-0.387066395752641,-0.13836006294090777,-4.9375,-3.5625,0.5625,-0.1767578125,0.87548828125,-0.5009765625
1969/12/31/18:00:08.076,116,1731185772,736286545,RL_myo,-0.47349217490234685,-0.7789611534259671,-0.3869477170508996,-0.13891056845549643,-10.125,-0.875,-2.6875,-0.16455078125,0.92626953125,-0.490234375
1969/12/31/18:00:08.099,117,1731185772,758944222,RL_myo,-0.47383479033377846,-0.7784341513018217,-0.3877218473712641,-0.1385374773387013,-2.125,1.5625,-3.125,-0.19482421875,0.8330078125,-0.51318359375
1969/12/31/18:00:08.119,118,1731185772,779809169,RL_myo,-0.473111773192503,-0.7785715803169196,-0.38852290352728,-0.13799093384781339,5.0625,2.1875,-2.4375,-0.18359375,0.8408203125,-0.5185546875
1969/12/31/18:00:08.136,119,1731185772,796284683,RL_myo,-0.4717164561120772,-0.7789516275531687,-0.38962839381802317,-0.13750513334461248,9.3125,4.625,-2.5,-0.19091796875,0.89990234375,-0.5517578125
1969/12/31/18:00:08.159,120,1731185772,818958215,RL_myo,-0.46952222423193535,-0.779688861895616,-0.3909735302781461,-0.13701772954643116,15.5,6.375,-3.75,-0.17724609375,0.90576171875,-0.5341796875
1969/12/31/18:00:08.179,121,1731185772,839849481,RL_myo,-0.4667771834629846,-0.7808508479635754,-0.3921953688458602,-0.13628575453358321,13.5,4.3125,-2.875,-0.14599609375,0.83984375,-0.60302734375
1969/12/31/18:00:08.196,122,1731185772,856169696,RL_myo,-0.46456622904616485,-0.782048299920856,-0.39224476538093817,-0.13683098863918833,7.4375,1.625,-0.5625,-0.05908203125,0.916015625,-0.6611328125
1969/12/31/18:00:08.219,123,1731185772,878818224,RL_myo,-0.46550894755725064,-0.7806292696023647,-0.3929391116262724,-0.13970761517746777,-24.5,6.9375,-7.4375,-0.02880859375,0.91943359375,-0.75732421875
1969/12/31/18:00:08.240,124,1731185772,899971577,RL_myo,-0.4751482118518408,-0.7741528476722863,-0.3918370610261809,-0.14623700906833792,-68.8125,5.25,-9.0,-0.0498046875,1.18994140625,-0.5869140625
1969/12/31/18:00:08.256,125,1731185772,916477833,RL_myo,-0.4886187992607481,-0.7646646185283429,-0.39157859306232323,-0.1523348142586594,-102.625,2.6875,-16.9375,-0.06103515625,1.02294921875,-0.7666015625
1969/12/31/18:00:08.278,126,1731185772,938751988,RL_myo,-0.5040093955869648,-0.754305173172596,-0.3905493003585599,-0.15642723188294874,-112.375,-12.5625,-22.75,-0.0185546875,0.8740234375,-0.83203125
1969/12/31/18:00:08.299,127,1731185772,959816713,RL_myo,-0.520601928178135,-0.7427579678696251,-0.3900547389198664,-0.15856082173584932,-116.375,-22.0,-36.375,0.0556640625,1.00927734375,-0.8330078125
1969/12/31/18:00:08.316,128,1731185772,976430162,RL_myo,-0.537919687862261,-0.7285168270946005,-0.392484855076265,-0.1608144290352913,-123.5625,-12.625,-57.1875,0.17919921875,1.0712890625,-0.72216796875
1969/12/31/18:00:08.339,129,1731185772,998919784,RL_myo,-0.5546092050775651,-0.7118308747463015,-0.3967772028402389,-0.16814662264649408,-138.75,17.6875,-56.125,0.2939453125,0.908203125,-0.63330078125
1969/12/31/18:00:08.359,130,1731185773,19795014,RL_myo,-0.566988510041015,-0.6945456667671422,-0.40488716637374533,-0.1794344692702459,-127.875,56.5,-56.875,0.3583984375,0.75927734375,-0.5234375
1969/12/31/18:00:08.375,131,1731185773,35548956,RL_myo,-0.5696328394773921,-0.6812645188306707,-0.4172302679382248,-0.1931734637250558,-89.1875,87.3125,-75.125,0.4296875,0.63671875,-0.421875
1969/12/31/18:00:08.399,132,1731185773,58960709,RL_myo,-0.5683216706325996,-0.6677413443289597,-0.43740994559963936,-0.1995106895723763,-34.25,105.0625,-98.4375,0.4609375,0.54052734375,-0.3037109375
1969/12/31/18:00:08.421,133,1731185773,81339621,RL_myo,-0.5589740766798167,-0.6585750913256799,-0.46175323333982893,-0.20152117056411778,27.625,117.9375,-108.125,0.4267578125,0.525390625,-0.2138671875
1969/12/31/18:00:08.435,134,1731185773,95782670,RL_myo,-0.5458042263355,-0.6505952200309101,-0.4884956980419704,-0.20048830185755534,58.25,123.1875,-118.4375,0.359375,0.5419921875,-0.140625
1969/12/31/18:00:08.458,135,1731185773,118869566,RL_myo,-0.5333997281150331,-0.6404458520410936,-0.5160062587199777,-0.19761422421469993,55.375,119.6875,-132.5625,0.25341796875,0.56005859375,-0.13623046875
1969/12/31/18:00:08.481,136,1731185773,141044705,RL_myo,-0.5234489665695746,-0.6284194950177113,-0.5418188090479985,-0.19370724261301503,42.125,106.125,-135.875,0.09912109375,0.56884765625,-0.13818359375
1969/12/31/18:00:08.495,137,1731185773,155674661,RL_myo,-0.5158929172427538,-0.6163495293072956,-0.5638630855797707,-0.18980562789837502,29.8125,88.8125,-122.625,-0.0556640625,0.56494140625,-0.09716796875
1969/12/31/18:00:08.518,138,1731185773,178812132,RL_myo,-0.5110220236870876,-0.6058659535580698,-0.5809038124272902,-0.18529354638886875,23.1875,63.0625,-102.75,-0.2138671875,0.5537109375,-0.0068359375
1969/12/31/18:00:08.542,139,1731185773,202795473,RL_myo,-0.5149229972003626,-0.5940198567916474,-0.5905410597262899,-0.1823622040576844,-7.4375,27.5625,-84.5,-0.29833984375,0.58251953125,0.078125
1969/12/31/18:00:08.555,140,1731185773,215757208,RL_myo,-0.5262770754738747,-0.5814498084239365,-0.5929237838604537,-0.18272916200496123,-51.6875,-4.9375,-59.1875,-0.33642578125,0.59423828125,0.1171875
1969/12/31/18:00:08.579,141,1731185773,238897625,RL_myo,-0.5400663278999377,-0.5705819979134951,-0.588647274561521,-0.19041778088459776,-103.375,-18.5625,-10.9375,-0.50341796875,0.5849609375,0.169921875
1969/12/31/18:00:08.601,142,1731185773,261359015,RL_myo,-0.5573943660374132,-0.5623988922626478,-0.5752763926714833,-0.20512454442699507,-141.125,-37.1875,50.5,-0.80078125,0.54443359375,0.17138671875
1969/12/31/18:00:08.606,143,1731185773,266576014,RL_myo,-0.5827143798824371,-0.5548847027535733,-0.549392003320245,-0.22520067676646344,-198.1875,-88.0625,103.1875,-0.958984375,0.69775390625,0.1142578125
1969/12/31/18:00:08.629,144,1731185773,289085724,RL_myo,-0.6152558617058453,-0.5472060367081251,-0.5135778272249467,-0.2413785272340659,-223.375,-157.8125,110.75,-0.84716796875,0.72216796875,0.1123046875
1969/12/31/18:00:08.651,145,1731185773,311801302,RL_myo,-0.6489041752779366,-0.5397769494129112,-0.47569216912304724,-0.2475503512911316,-199.25,-201.25,81.125,-0.77880859375,0.62890625,0.19921875
1969/12/31/18:00:08.668,146,1731185773,328241148,RL_myo,-0.6781753359025213,-0.5373770547715713,-0.43637091897975405,-0.24674791964127912,-145.9375,-222.5625,79.0625,-0.75537109375,0.720703125,0.5078125
1969/12/31/18:00:08.689,147,1731185773,349085140,RL_myo,-0.70504483100109,-0.5365957543422424,-0.3918882323284279,-0.247791033056131,-147.5,-235.75,110.6875,-0.86083984375,0.96923828125,0.3828125
1969/12/31/18:00:08.704,148,1731185773,364191668,RL_myo,-0.7276089646379651,-0.5360943755561052,-0.3448849403765426,-0.253460831248236,-148.3125,-223.3125,143.3125,-0.787109375,1.10302734375,0.408203125
1969/12/31/18:00:08.726,149,1731185773,386659207,RL_myo,-0.751522673466224,-0.531265622261124,-0.294347397606594,-0.2575463441633479,-171.6875,-240.8125,139.4375,-0.84912109375,0.93798828125,0.5048828125
1969/12/31/18:00:08.757,150,1731185773,418014564,RL_myo,-0.776705168983812,-0.5199395988191965,-0.2402256439667047,-0.2620754357705869,-212.4375,-249.25,139.6875,-0.7900390625,0.97216796875,0.44775390625
1969/12/31/18:00:08.764,151,1731185773,424188741,RL_myo,-0.7947114946269977,-0.5113349897845777,-0.18834802798701444,-0.2673858427126086,-178.5625,-231.25,149.8125,-0.68212890625,1.0673828125,0.42724609375
1969/12/31/18:00:08.786,152,1731185773,446601542,RL_myo,-0.807255017145537,-0.5052743847393892,-0.14073713385783687,-0.27061077689750596,-140.3125,-217.4375,139.9375,-0.6767578125,1.07861328125,0.60302734375
1969/12/31/18:00:08.809,153,1731185773,469213136,RL_myo,-0.8163040153091307,-0.5002188941662531,-0.09557623087656812,-0.27256925101836094,-122.0,-208.5625,132.75,-0.54931640625,1.13525390625,0.60888671875
1969/12/31/18:00:08.824,154,1731185773,484114736,RL_myo,-0.8215478209264431,-0.4956995320975091,-0.05419615667355185,-0.2764126053767076,-105.9375,-182.5,133.4375,-0.25244140625,1.228515625,0.53759765625
1969/12/31/18:00:08.846,155,1731185773,506648762,RL_myo,-0.8231288704532995,-0.4909356145863677,-0.02038444744801676,-0.28464988891482085,-86.25,-132.25,138.125,-0.11962890625,1.283203125,0.58837890625
1969/12/31/18:00:08.869,156,1731185773,529086154,RL_myo,-0.821690146349824,-0.4861905745987297,0.007812251261440799,-0.2972927804256104,-67.5625,-93.0,146.75,-0.0029296875,1.16357421875,0.642578125
1969/12/31/18:00:08.893,157,1731185773,553172605,RL_myo,-0.8176612354772232,-0.4831384892168172,0.02984521490993224,-0.3116353115135256,-40.8125,-61.625,140.1875,0.1884765625,1.11767578125,0.71533203125
1969/12/31/18:00:08.906,158,1731185773,566576947,RL_myo,-0.813799129631299,-0.48080917528388883,0.04516359351486135,-0.3232858849300278,-27.625,-37.4375,108.125,0.3193359375,1.15673828125,0.66357421875
1969/12/31/18:00:08.923,159,1731185773,583808997,RL_myo,-0.8120663197011082,-0.47206771252728635,0.05852785214139206,-0.33804564443292034,-59.375,-6.5625,113.5625,0.3701171875,1.02978515625,0.57666015625
1969/12/31/18:00:08.944,160,1731185773,604150058,RL_myo,-0.8101104741683676,-0.4605050499209172,0.07250894623009273,-0.35552576750024417,-70.9375,1.5,131.0,0.2001953125,0.82763671875,0.57275390625
1969/12/31/18:00:08.966,161,1731185773,626582191,RL_myo,-0.8057069598423111,-0.4501241442949052,0.08825484917294006,-0.3747474231824703,-60.5,-4.8125,145.8125,0.28369140625,0.5908203125,0.56005859375
1969/12/31/18:00:08.989,162,1731185773,649182309,RL_myo,-0.7986698315117692,-0.4434003000101638,0.1032057683850223,-0.39353683888032154,-33.125,-10.1875,142.1875,0.47802734375,0.4306640625,0.60791015625
1969/12/31/18:00:09.004,163,1731185773,664248161,RL_myo,-0.7901065262412987,-0.43923966239445594,0.1152874423041722,-0.41171470925566206,-10.8125,-5.375,133.8125,0.55419921875,0.38134765625,0.66064453125
1969/12/31/18:00:09.026,164,1731185773,686616086,RL_myo,-0.7803239292808949,-0.43834856942474676,0.12396072744384025,-0.42846100770839907,13.125,-2.25,120.125,0.57373046875,0.46435546875,0.66845703125
1969/12/31/18:00:09.043,165,1731185773,703250382,RL_myo,-0.7704760768319127,-0.4429138854221475,0.12719202662529358,-0.44047257972876375,57.1875,-4.8125,73.4375,0.71337890625,0.4736328125,0.759765625
1969/12/31/18:00:09.064,166,1731185773,724136950,RL_myo,-0.7634686318473656,-0.45665299412279076,0.118649214190685,-0.4410284062458281,104.1875,-1.0625,-15.25,0.69384765625,0.34716796875,0.6943359375
1969/12/31/18:00:09.086,167,1731185773,746698928,RL_myo,-0.7558186365472607,-0.472874902775208,0.10894188196357076,-0.4396125354529973,115.875,-4.9375,-27.6875,0.8564453125,0.49267578125,0.56005859375
1969/12/31/18:00:09.110,168,1731185773,770442033,RL_myo,-0.7494684804843686,-0.48129547533385436,0.10344862169552158,-0.44266245024048256,70.4375,19.1875,-6.75,0.8974609375,0.5791015625,0.498046875
1969/12/31/18:00:09.124,169,1731185773,784104679,RL_myo,-0.7489181175817818,-0.4791586782767965,0.10106824241833842,-0.4464457688950154,3.0,28.5,6.125,0.59765625,0.498046875,0.46435546875
1969/12/31/18:00:09.155,170,1731185773,815350380,RL_myo,-0.7510576487787105,-0.4733628412097902,0.10167902184831235,-0.4488890790482217,-26.0625,19.4375,5.625,0.4814453125,0.41064453125,0.462890625
1969/12/31/18:00:09.161,171,1731185773,821617244,RL_myo,-0.7522955611402251,-0.46965068497274315,0.10320718756191145,-0.45036418510901516,-19.8125,9.25,4.625,0.55859375,0.470703125,0.47802734375
1969/12/31/18:00:09.184,172,1731185773,844139578,RL_myo,-0.7533369144146275,-0.468432376094326,0.10406217605743659,-0.44969508105055295,-9.3125,-0.5,-5.375,0.58984375,0.5546875,0.52001953125
1969/12/31/18:00:09.209,173,1731185773,868935099,RL_myo,-0.7549493257880708,-0.4678000470626971,0.10399625312391857,-0.4476599276196847,-6.3125,-1.8125,-15.375,0.58740234375,0.56103515625,0.533203125
1969/12/31/18:00:09.221,174,1731185773,881562740,RL_myo,-0.7571766581748273,-0.4653773995311186,0.10436660369812627,-0.4463350718388289,-14.5625,0.375,-10.5625,0.5400390625,0.5341796875,0.56201171875
1969/12/31/18:00:09.244,175,1731185773,904120496,RL_myo,-0.7589962516704213,-0.46164744673810443,0.1056467120972579,-0.44681662580244086,-19.375,3.375,1.1875,0.5283203125,0.51513671875,0.57763671875
1969/12/31/18:00:09.266,176,1731185773,926344484,RL_myo,-0.7601499368702334,-0.45804297681341644,0.1073547763110992,-0.4481558399388297,-18.4375,4.6875,7.0,0.54833984375,0.5146484375,0.57275390625
1969/12/31/18:00:09.284,177,1731185773,944343629,RL_myo,-0.7607184993217416,-0.4554911874549228,0.10851712867410594,-0.4495099283941453,-12.625,5.4375,7.0625,0.56689453125,0.53466796875,0.5517578125
1969/12/31/18:00:09.304,178,1731185773,964027589,RL_myo,-0.7606402191782223,-0.4542602223656831,0.1086977638093889,-0.45084243754068265,-4.0625,5.4375,6.8125,0.53857421875,0.54345703125,0.537109375
