time,.header.seq,.header.stamp.secs,.header.stamp.nsecs,.header.frame_id,.orientation.x,.orientation.y,.orientation.z,.orientation.w,.angular_velocity.x,.angular_velocity.y,.angular_velocity.z,.linear_acceleration.x,.linear_acceleration.y,.linear_acceleration.z
1969/12/31/18:00:07.845,1,1730347375,954259786,RU_myo,0.435601046829993,-0.1813325921440254,-0.7612184749984129,-0.4448782444085497,-28.25,-17.0,16.5,0.7880859375,0.44287109375,-0.38232421875
1969/12/31/18:00:07.866,2,1730347375,974738430,RU_myo,0.4339507254432382,-0.1857260277811215,-0.759383252597014,-0.44780541105162286,-33.875,-7.1875,4.75,0.8173828125,0.4296875,-0.28515625
1969/12/31/18:00:07.882,3,1730347375,991172995,RU_myo,0.43273845741731887,-0.1872555130262813,-0.7581773086090177,-0.4503775849481518,-20.75,-3.5625,-6.875,0.84326171875,0.4443359375,-0.2236328125
1969/12/31/18:00:07.906,4,1730347376,14345129,RU_myo,0.43297475146329173,-0.187618323371604,-0.7581025356534461,-0.4501252878547754,0.625,-2.5,-1.5,0.859375,0.46337890625,-0.18896484375
1969/12/31/18:00:07.926,5,1730347376,35125957,RU_myo,0.43524055289229124,-0.18725536618616598,-0.757505329118809,-0.4490954968702116,7.125,8.6875,4.625,0.916015625,0.52685546875,-0.197265625
1969/12/31/18:00:07.944,6,1730347376,52551938,RU_myo,0.43737239974535824,-0.18554452905747826,-0.7563380934474574,-0.4497013454261512,1.6875,16.0,-1.0625,0.900390625,0.583984375,-0.21337890625
1969/12/31/18:00:07.965,7,1730347376,73601087,RU_myo,0.4402259951538798,-0.18266968022952476,-0.7541151249301731,-0.45182213255568726,-3.4375,26.4375,-6.4375,0.9169921875,0.6025390625,-0.20654296875
1969/12/31/18:00:07.986,8,1730347376,95070455,RU_myo,0.4429749246647791,-0.17729982862375082,-0.7518000994792986,-0.4551204206703304,-1.125,31.625,-18.875,0.94091796875,0.65185546875,-0.16357421875
1969/12/31/18:00:08.002,9,1730347376,111125487,RU_myo,0.4435356705701617,-0.16778306844604024,-0.7519415799400567,-0.4579397462897926,15.4375,29.25,-38.0625,0.86279296875,0.72509765625,-0.1875
1969/12/31/18:00:08.025,10,1730347376,133667615,RU_myo,0.4452469433210616,-0.1565535859655275,-0.7533492832641348,-0.4579421269003324,37.0,29.5,-42.625,0.92138671875,0.6669921875,-0.142578125
1969/12/31/18:00:08.053,11,1730347376,162165195,RU_myo,0.45019358005719856,-0.14379827475796633,-0.7542085234228311,-0.455869827745013,55.0625,39.5,-41.125,1.0146484375,0.64013671875,-0.03076171875
1969/12/31/18:00:08.062,12,1730347376,171110239,RU_myo,0.45703218897249975,-0.12780787976875194,-0.754518151719824,-0.4533090367920347,69.4375,52.25,-46.0,1.05078125,0.724609375,0.05712890625
1969/12/31/18:00:08.086,13,1730347376,194310587,RU_myo,0.4646061717224894,-0.10693510415893345,-0.7539779347461786,-0.4519106799045338,75.875,72.8125,-64.0625,0.95458984375,0.74658203125,0.06298828125
1969/12/31/18:00:08.114,14,1730347376,222211381,RU_myo,0.47306401514082586,-0.08092928448932203,-0.752044225850246,-0.4517636227676936,82.75,93.5625,-82.0,0.947265625,0.8623046875,0.09375
1969/12/31/18:00:08.122,15,1730347376,231104563,RU_myo,0.4777183043873127,-0.054442919063943135,-0.7502991076827948,-0.4537316819746113,64.0625,90.9375,-104.8125,0.93359375,0.9033203125,0.087890625
1969/12/31/18:00:08.145,16,1730347376,253744888,RU_myo,0.481674763670839,-0.027831182492891862,-0.7430803659012246,-0.4637309749583166,15.0,105.625,-128.375,1.03759765625,1.01123046875,0.1123046875
1969/12/31/18:00:08.168,17,1730347376,276222559,RU_myo,0.48313091260181673,-0.007629025274788668,-0.7275038502038473,-0.48709800574470685,-82.375,104.375,-143.4375,0.935546875,1.0048828125,0.10009765625
1969/12/31/18:00:08.182,18,1730347376,291195988,RU_myo,0.4845625253645868,0.009216392660291298,-0.7030703778403673,-0.520390488885057,-160.125,121.5625,-157.0,0.85986328125,0.97607421875,0.06396484375
1969/12/31/18:00:08.206,19,1730347376,314350598,RU_myo,0.48674019897304643,0.024352268262099755,-0.6729526562854934,-0.5564401748009109,-193.1875,135.75,-158.125,0.79638671875,0.8447265625,0.11572265625
1969/12/31/18:00:08.226,20,1730347376,334725883,RU_myo,0.4932809967055614,0.03741416122005805,-0.6352472919712303,-0.593072438132633,-225.9375,167.8125,-140.875,0.86279296875,0.7744140625,0.20263671875
1969/12/31/18:00:08.243,21,1730347376,351977678,RU_myo,0.506341234491015,0.04736268056473332,-0.58757799716068,-0.629386548947848,-269.0625,210.0625,-110.1875,0.80615234375,0.6513671875,0.296875
1969/12/31/18:00:08.265,22,1730347376,373708541,RU_myo,0.5226572032440917,0.055360280665933806,-0.5329724043825071,-0.6631026341286713,-290.75,234.5,-85.375,0.6640625,0.548828125,0.43017578125
1969/12/31/18:00:08.293,23,1730347376,402158611,RU_myo,0.5401607203002818,0.06311030336615722,-0.47711145204376304,-0.690368125120507,-277.1875,244.25,-61.5625,0.69189453125,0.5283203125,0.52880859375
1969/12/31/18:00:08.302,24,1730347376,411127654,RU_myo,0.5573462459033756,0.07207905348356182,-0.42283122991881145,-0.7109033149674243,-248.0625,247.8125,-46.0625,0.74072265625,0.427734375,0.5517578125
1969/12/31/18:00:08.325,25,1730347376,433626334,RU_myo,0.573652980882801,0.0843481667815758,-0.37395167718575617,-0.7238561924960124,-195.5,245.3125,-31.125,0.6748046875,0.3232421875,0.61962890625
1969/12/31/18:00:08.346,26,1730347376,454819845,RU_myo,0.5911878426444264,0.10168479721718092,-0.33624342609210667,-0.7260148036604844,-109.9375,237.75,4.75,0.61962890625,0.29443359375,0.6640625
1969/12/31/18:00:08.362,27,1730347376,470418997,RU_myo,0.6069188796721775,0.12365422870231614,-0.3122482892601428,-0.7203194507130972,-23.125,211.75,24.0625,0.5869140625,0.45458984375,0.6279296875
1969/12/31/18:00:08.385,28,1730347376,493664392,RU_myo,0.6201345857198498,0.14996758633008572,-0.2988365090240536,-0.709675672063454,45.125,191.6875,31.1875,0.4755859375,0.46435546875,0.53955078125
1969/12/31/18:00:08.406,29,1730347376,514635680,RU_myo,0.6324040965859499,0.1809746304774965,-0.290841185236179,-0.6947838848989352,92.5,193.125,38.8125,0.439453125,0.37451171875,0.46484375
1969/12/31/18:00:08.422,30,1730347376,530498447,RU_myo,0.6426948657898623,0.2143536912301991,-0.28637457837474206,-0.6774846163596839,123.5,188.8125,39.375,0.390625,0.32763671875,0.5576171875
1969/12/31/18:00:08.445,31,1730347376,553650729,RU_myo,0.6500945576383165,0.24817242243520748,-0.29077555840662284,-0.656686446871716,165.3125,155.625,52.8125,0.2685546875,0.69921875,0.61572265625
1969/12/31/18:00:08.466,32,1730347376,574754852,RU_myo,0.6588409256226688,0.28010200182346,-0.2901732221984591,-0.6350362229181254,133.125,170.1875,57.25,0.216796875,0.8359375,0.17578125
1969/12/31/18:00:08.482,33,1730347376,590476966,RU_myo,0.6669277311968416,0.3041976583037484,-0.27679301372542114,-0.6213347033571747,43.125,174.625,18.625,0.08349609375,0.87255859375,0.10498046875
1969/12/31/18:00:08.505,34,1730347376,613661252,RU_myo,0.6744537027015317,0.3206859505876785,-0.2565975896974877,-0.6135392415887599,-14.25,161.625,-4.9375,-0.01513671875,0.79248046875,0.33349609375
1969/12/31/18:00:08.526,35,1730347376,634631588,RU_myo,0.6787012311987747,0.3359937300134222,-0.2454798877591252,-0.6051549197244471,22.8125,118.1875,4.25,-0.06005859375,0.69677734375,0.482421875
1969/12/31/18:00:08.542,36,1730347376,650508951,RU_myo,0.6825105735240746,0.35120424253778626,-0.2400567059265056,-0.5943127753893682,46.625,100.4375,22.9375,-0.01708984375,0.4970703125,0.28662109375
1969/12/31/18:00:08.565,37,1730347376,673694086,RU_myo,0.6856861160687501,0.36536559469356755,-0.2369444100568709,-0.5832665591199017,48.375,87.3125,27.25,-0.0361328125,0.453125,0.26220703125
1969/12/31/18:00:08.586,38,1730347376,694705516,RU_myo,0.6858982328949201,0.3836586841054874,-0.24114468038510672,-0.5693846427012556,99.1875,74.375,37.75,-0.04931640625,0.5615234375,0.3232421875
1969/12/31/18:00:08.602,39,1730347376,710490063,RU_myo,0.6804911745349688,0.407720965637599,-0.2540931706510965,-0.5532919990276699,168.3125,55.4375,39.875,-0.03955078125,0.75146484375,0.2978515625
1969/12/31/18:00:08.625,40,1730347376,733668462,RU_myo,0.6720833508063218,0.43061920260999,-0.2678323261591263,-0.5395710490534814,167.375,39.0,24.75,-0.04931640625,1.0126953125,0.2275390625
1969/12/31/18:00:08.647,41,1730347376,756075230,RU_myo,0.6660829938386573,0.44513362723956085,-0.27630877972212975,-0.5308888372041273,104.6875,23.625,13.5,-0.126953125,1.0625,0.18701171875
1969/12/31/18:00:08.662,42,1730347376,770521215,RU_myo,0.6639375519392358,0.4518413032732269,-0.2809436065063709,-0.52544938266638,38.1875,11.6875,14.875,-0.11376953125,1.0703125,0.27294921875
1969/12/31/18:00:08.685,43,1730347376,793653907,RU_myo,0.6659604795171672,0.4508706866642209,-0.2818018086271433,-0.5232590221703487,-4.5625,4.375,14.75,-0.04736328125,0.98583984375,0.4521484375
1969/12/31/18:00:08.708,44,1730347376,816182379,RU_myo,0.6692564183229331,0.44629301694275303,-0.2808252421982504,-0.5235031737305789,-29.875,-3.6875,10.3125,-0.046875,0.95654296875,0.46484375
1969/12/31/18:00:08.722,45,1730347376,830416425,RU_myo,0.6735225352228278,0.4392087144053891,-0.27825910630547096,-0.5253903020569191,-55.75,-9.5625,9.3125,-0.07373046875,0.931640625,0.37255859375
1969/12/31/18:00:08.745,46,1730347376,853667532,RU_myo,0.6769676014664489,0.43257320274030503,-0.27503525491009095,-0.5281580250193113,-53.1875,-10.4375,3.3125,-0.103515625,0.8505859375,0.38232421875
1969/12/31/18:00:08.775,47,1730347376,883772975,RU_myo,0.6780476969367205,0.4286550522627229,-0.27466150294493136,-0.5301577365732608,-22.1875,-13.75,1.3125,-0.08251953125,0.78466796875,0.43505859375
1969/12/31/18:00:08.789,48,1730347376,897222558,RU_myo,0.6781167663250365,0.42707317857572286,-0.2771672579551747,-0.5300419440834039,2.375,-11.4375,4.25,0.0,0.93212890625,0.5263671875
1969/12/31/18:00:08.805,49,1730347376,913650835,RU_myo,0.6778557029013801,0.42773390653096266,-0.278442077853061,-0.5291742251175009,14.0,2.25,-0.625,0.001953125,0.9912109375,0.63671875
1969/12/31/18:00:08.828,50,1730347376,936234099,RU_myo,0.6774491732959659,0.42976120634083215,-0.2779012601150133,-0.5283358900846816,16.5,11.8125,-5.375,-0.033203125,0.8544921875,0.5947265625
1969/12/31/18:00:08.849,51,1730347376,957295053,RU_myo,0.6753614950925269,0.4344530611901135,-0.2791779013604354,-0.5264950977558189,34.5,11.8125,-5.375,-0.04345703125,0.8125,0.50244140625
1969/12/31/18:00:08.865,52,1730347376,973672775,RU_myo,0.6712548835901369,0.4417050002311166,-0.2833210737975464,-0.5234909198538465,58.4375,7.4375,-2.875,-0.06982421875,0.8681640625,0.48046875
1969/12/31/18:00:08.887,53,1730347376,996037551,RU_myo,0.6657201398923245,0.4499577217645747,-0.28882256367199777,-0.5205153894748091,67.9375,2.25,-4.875,-0.08251953125,0.95263671875,0.4658203125
1969/12/31/18:00:08.909,54,1730347377,17244456,RU_myo,0.6603413000723954,0.4572767372347155,-0.2932747894304335,-0.518495179232369,54.8125,0.75,-8.8125,-0.095703125,0.96142578125,0.38037109375
1969/12/31/18:00:08.925,55,1730347377,33760099,RU_myo,0.6558762331099527,0.4629463268322158,-0.29601709757893824,-0.517572162364824,35.875,0.0625,-10.9375,-0.11279296875,0.94091796875,0.30029296875
1969/12/31/18:00:08.947,56,1730347377,56223591,RU_myo,0.6527869697051961,0.4660148212902452,-0.29724848456889247,-0.5180180469273491,21.5625,-2.0,-13.125,-0.091796875,0.91943359375,0.37255859375
1969/12/31/18:00:08.969,57,1730347377,77245041,RU_myo,0.6506383431882963,0.46740979663564475,-0.29797527124251993,-0.5190458227460855,13.375,-3.3125,-14.0,-0.04150390625,0.89208984375,0.40771484375
1969/12/31/18:00:08.986,58,1730347377,94424846,RU_myo,0.6496838281422316,0.467975000973928,-0.2978633109107563,-0.5197958925647542,4.125,0.1875,-11.0625,-0.02978515625,0.84326171875,0.37060546875
1969/12/31/18:00:09.007,59,1730347377,116158360,RU_myo,0.6487633895702491,0.4694974120401126,-0.2978000355361037,-0.5196088752856837,8.75,4.5625,-7.125,-0.05859375,0.8359375,0.3515625
1969/12/31/18:00:09.029,60,1730347377,137238035,RU_myo,0.6469943969976654,0.47255005863735144,-0.2988381667642047,-0.5184500384998273,24.3125,6.75,-5.8125,-0.05517578125,0.84619140625,0.396484375
1969/12/31/18:00:09.045,61,1730347377,153709936,RU_myo,0.6448988195161022,0.4768076450936769,-0.30053774250400217,-0.5161754038091686,34.5625,10.8125,-4.5625,-0.03955078125,0.8720703125,0.40625
1969/12/31/18:00:09.068,62,1730347377,176895877,RU_myo,0.642508488748966,0.481988176655323,-0.30169273866117025,-0.5136649986996579,32.125,14.4375,-5.125,-0.08203125,0.92431640625,0.33056640625
1969/12/31/18:00:09.088,63,1730347377,197164289,RU_myo,0.6401233505679941,0.4869283076689032,-0.3023618496103969,-0.5115859958486773,28.0,12.6875,-4.4375,-0.13623046875,0.919921875,0.3056640625
1969/12/31/18:00:09.105,64,1730347377,213566130,RU_myo,0.6375852916417577,0.4912202208628055,-0.30414393148103375,-0.5095921500973613,31.1875,6.875,-1.8125,-0.11572265625,0.880859375,0.3037109375
1969/12/31/18:00:09.127,65,1730347377,236082218,RU_myo,0.6356263128085171,0.494938906334191,-0.30609429217732986,-0.5072681280729389,28.5,7.125,0.75,-0.0947265625,0.921875,0.3154296875
1969/12/31/18:00:09.149,66,1730347377,257192669,RU_myo,0.6339030861442663,0.49834572485730155,-0.30718604203390065,-0.50542571311002,23.75,7.8125,-0.25,-0.13623046875,0.98828125,0.33154296875
1969/12/31/18:00:09.165,67,1730347377,273731237,RU_myo,0.6327160725654688,0.5008137541384982,-0.3070803165229475,-0.5045370495684126,18.4375,7.1875,-1.0,-0.1748046875,0.93896484375,0.376953125
1969/12/31/18:00:09.187,68,1730347377,296171129,RU_myo,0.6303751728133032,0.5047029728885751,-0.3075581425064131,-0.5032991552109313,31.5,8.3125,-3.0,-0.1845703125,0.88037109375,0.392578125
1969/12/31/18:00:09.208,69,1730347377,317239169,RU_myo,0.627388804956226,0.5092231539789661,-0.3078044307222733,-0.502326088606843,29.625,8.5625,-7.0625,-0.20556640625,0.9609375,0.32568359375
1969/12/31/18:00:09.225,70,1730347377,333744845,RU_myo,0.6250515803592407,0.5128096258352056,-0.3060256443629756,-0.5026779431538626,12.0,9.3125,-13.6875,-0.23828125,1.05517578125,0.28955078125
1969/12/31/18:00:09.247,71,1730347377,356143631,RU_myo,0.6234895461995006,0.5145390968636113,-0.3030470481527675,-0.5046511569238836,-2.3125,5.8125,-20.4375,-0.1982421875,1.04345703125,0.298828125
1969/12/31/18:00:09.269,72,1730347377,377233737,RU_myo,0.6239061074753854,0.5139809558843887,-0.2982200392413161,-0.5075722157860796,-19.1875,8.375,-22.75,-0.1669921875,1.0791015625,0.38330078125
1969/12/31/18:00:09.285,73,1730347377,393746676,RU_myo,0.6257550504584037,0.5126528159188581,-0.2907819996472723,-0.5109437697412503,-29.625,17.375,-26.8125,-0.1748046875,1.05615234375,0.462890625
1969/12/31/18:00:09.307,74,1730347377,416076183,RU_myo,0.6277537871916515,0.5118466951277774,-0.28119219227923564,-0.5146543445405937,-35.0,26.125,-35.375,-0.1787109375,1.0244140625,0.470703125
1969/12/31/18:00:09.328,75,1730347377,437182569,RU_myo,0.6297036492090483,0.511660918030382,-0.27093675475806583,-0.5179475784809522,-30.125,32.375,-36.0,-0.177734375,0.89697265625,0.50341796875
1969/12/31/18:00:09.344,76,1730347377,452970891,RU_myo,0.6319110523987946,0.5125846631937677,-0.2603207416672326,-0.5197869721074215,-30.9375,40.4375,-32.875,-0.20068359375,0.91357421875,0.43505859375
1969/12/31/18:00:09.367,77,1730347377,476168207,RU_myo,0.6347118275760919,0.5137998042634428,-0.24853799037309804,-0.5209409989770117,-38.3125,47.4375,-31.75,-0.24853515625,0.97705078125,0.41259765625
1969/12/31/18:00:09.388,78,1730347377,497121503,RU_myo,0.6382648790965771,0.5141154324022635,-0.23493177007198293,-0.5225995882973027,-47.875,51.375,-35.0625,-0.25439453125,0.92138671875,0.43701171875
1969/12/31/18:00:09.404,79,1730347377,512909470,RU_myo,0.6424618574075687,0.51385962165251,-0.2213765111929747,-0.5236253348565012,-45.875,54.0625,-31.5,-0.2060546875,0.7509765625,0.46533203125
1969/12/31/18:00:09.427,80,1730347377,536151831,RU_myo,0.6471609342445928,0.5145304796455642,-0.2084977601980127,-0.5224651133767532,-42.875,60.5,-20.25,-0.23291015625,0.7607421875,0.41845703125
1969/12/31/18:00:09.449,81,1730347377,557219913,RU_myo,0.6517500677977239,0.5164316654463891,-0.19580578923909892,-0.5197886849003013,-40.75,65.625,-14.6875,-0.28369140625,0.80322265625,0.37060546875
1969/12/31/18:00:09.464,82,1730347377,572953987,RU_myo,0.6555296797577781,0.5189915146164235,-0.18347506679254014,-0.5169773172763855,-31.1875,66.5625,-15.9375,-0.27685546875,0.72900390625,0.392578125
1969/12/31/18:00:09.487,83,1730347377,596135123,RU_myo,0.658699559207371,0.5225284401755285,-0.17364716882366296,-0.5127626943014385,-14.375,66.3125,-8.875,-0.21435546875,0.6591796875,0.4052734375
1969/12/31/18:00:09.509,84,1730347377,617279309,RU_myo,0.6619927375614091,0.5272870422084652,-0.1649793813044891,-0.5064738831167779,-9.0625,70.0,1.75,-0.25048828125,0.72802734375,0.36328125
1969/12/31/18:00:09.524,85,1730347377,632882150,RU_myo,0.6651890198199117,0.5320657630547047,-0.15662277710202732,-0.4998988871650833,-12.8125,67.5625,3.3125,-0.29833984375,0.85302734375,0.3251953125
1969/12/31/18:00:09.548,86,1730347377,656142164,RU_myo,0.6686231244348795,0.5353135659388254,-0.14850831310480755,-0.4942952402477318,-19.3125,59.9375,1.75,-0.279296875,0.80078125,0.30810546875
1969/12/31/18:00:09.569,87,1730347377,677281637,RU_myo,0.6725690144037684,0.5377378180322352,-0.14203358712383782,-0.4881756037028169,-15.3125,53.9375,12.8125,-0.2646484375,0.67529296875,0.31201171875
1969/12/31/18:00:09.584,88,1730347377,692877898,RU_myo,0.677452063115445,0.5398131404804934,-0.13623506666129143,-0.48072911515427025,-18.0625,54.75,22.6875,-0.287109375,0.740234375,0.30810546875
1969/12/31/18:00:09.607,89,1730347377,716118067,RU_myo,0.6821361943224685,0.5421200499259275,-0.13098284475805455,-0.47290544323644296,-16.5625,53.6875,25.25,-0.3212890625,0.8291015625,0.31884765625
1969/12/31/18:00:09.636,90,1730347377,744678050,RU_myo,0.686302433902646,0.5442077997755239,-0.1271405167039498,-0.4654697937514744,-11.1875,46.5,26.3125,-0.29833984375,0.81201171875,0.32666015625
1969/12/31/18:00:09.644,91,1730347377,753005134,RU_myo,0.6910985679058883,0.5448588638784655,-0.12457230213688229,-0.45825029125120637,-16.25,37.6875,31.0625,-0.2783203125,0.8046875,0.31201171875
1969/12/31/18:00:09.667,92,1730347377,776070809,RU_myo,0.6970397392419486,0.5442037053486176,-0.12231765651846453,-0.45057332356252755,-27.25,34.5,36.1875,-0.26904296875,0.87109375,0.28955078125
1969/12/31/18:00:09.690,93,1730347377,798595184,RU_myo,0.7029655710561553,0.5429870383012553,-0.12054849377753814,-0.4432522338291048,-26.9375,30.875,36.4375,-0.26416015625,0.88427734375,0.3173828125
1969/12/31/18:00:09.711,94,1730347377,819639236,RU_myo,0.7079757881881216,0.5422585483458291,-0.11987795913453494,-0.4362971750986027,-13.0,27.375,38.0625,-0.24560546875,0.765625,0.376953125
1969/12/31/18:00:09.727,95,1730347377,836171225,RU_myo,0.7116261662381372,0.5434091910127915,-0.12103565379965917,-0.42853823768401766,2.75,25.3125,42.5,-0.24560546875,0.77197265625,0.3544921875
1969/12/31/18:00:09.750,96,1730347377,858586822,RU_myo,0.7144316757508055,0.5457269212206708,-0.1231715610136801,-0.4202359750144636,6.0625,24.125,43.625,-0.2626953125,0.92626953125,0.298828125
1969/12/31/18:00:09.771,97,1730347377,879668228,RU_myo,0.7176820163558111,0.5465321291418551,-0.12482222516139085,-0.4131035794094344,-4.75,18.8125,38.5625,-0.25048828125,0.98681640625,0.3037109375
1969/12/31/18:00:09.787,98,1730347377,896090828,RU_myo,0.7213872580602512,0.5459080832634644,-0.12646707832311027,-0.40692857682440936,-6.8125,14.4375,37.125,-0.20947265625,0.84765625,0.33837890625
1969/12/31/18:00:09.810,99,1730347377,918649641,RU_myo,0.7249723153580221,0.5454687306242333,-0.12890566846574697,-0.40032778383846324,-4.875,12.75,40.1875,-0.18115234375,0.82275390625,0.31005859375
1969/12/31/18:00:09.831,100,1730347377,939582200,RU_myo,0.7285373021438761,0.5449380892711567,-0.1312905275562565,-0.3937495087240403,-7.5625,11.9375,40.875,-0.20263671875,0.91552734375,0.3056640625
1969/12/31/18:00:09.847,101,1730347377,956144996,RU_myo,0.7310417149342943,0.545183651815406,-0.13464791042373325,-0.3875857802315078,3.4375,7.8125,40.4375,-0.20556640625,0.9169921875,0.34619140625
1969/12/31/18:00:09.870,102,1730347377,978665787,RU_myo,0.7325600779674408,0.5460935692030239,-0.1390411479428287,-0.3818443465892609,12.125,3.75,37.3125,-0.17041015625,0.9267578125,0.35498046875
1969/12/31/18:00:09.891,103,1730347377,999718102,RU_myo,0.7343887722035655,0.5462748928874593,-0.14294701666395865,-0.3765939764374999,3.125,2.25,34.1875,-0.154296875,0.97216796875,0.318359375
1969/12/31/18:00:09.907,104,1730347378,16158815,RU_myo,0.7365995337257188,0.5453082726471306,-0.14655083530621899,-0.37226719888905857,-5.8125,-1.5,30.625,-0.138671875,0.98046875,0.291015625
1969/12/31/18:00:09.930,105,1730347378,38641199,RU_myo,0.738661233462168,0.5441385635692636,-0.1502103202404888,-0.36841507231677795,-2.4375,-4.0625,31.3125,-0.146484375,0.89013671875,0.32080078125
1969/12/31/18:00:09.951,106,1730347378,59711994,RU_myo,0.7399960551702075,0.543949591197368,-0.15454223125131686,-0.36419964213136163,9.4375,-3.5,32.8125,-0.13916015625,0.87744140625,0.36962890625
1969/12/31/18:00:09.967,107,1730347378,76006375,RU_myo,0.740790088321413,0.5444993307996479,-0.15875381228672616,-0.3599274244732119,12.0625,-2.0,30.3125,-0.1259765625,0.93896484375,0.3583984375
1969/12/31/18:00:09.990,108,1730347378,98525993,RU_myo,0.7413567014067496,0.5448172169238141,-0.1626638901077711,-0.3565177418834863,6.25,-4.875,25.9375,-0.13037109375,0.97900390625,0.3056640625
1969/12/31/18:00:10.011,109,1730347378,119624815,RU_myo,0.7422090530528604,0.5439611086190044,-0.16718014772300863,-0.35395314956032387,0.6875,-12.5625,26.5,-0.1298828125,0.94873046875,0.29345703125
1969/12/31/18:00:10.027,110,1730347378,136173414,RU_myo,0.7431828419599994,0.542433140316895,-0.17187934321282508,-0.35199864073450365,1.25,-15.9375,25.8125,-0.1123046875,0.90478515625,0.33056640625
1969/12/31/18:00:10.057,111,1730347378,166100071,RU_myo,0.7449531254682161,0.5399918313000662,-0.1756026335085668,-0.3501676428358178,-4.625,-12.875,24.75,-0.10791015625,0.90869140625,0.37841796875
1969/12/31/18:00:10.071,112,1730347378,179716248,RU_myo,0.7463894470577365,0.5378960010564913,-0.1794410805748422,-0.3483842475922446,-4.8125,-12.9375,22.125,-0.0771484375,1.01171875,0.3779296875
1969/12/31/18:00:10.087,113,1730347378,196095386,RU_myo,0.7484256366873249,0.5349821159325071,-0.1817657434394759,-0.34729586305259164,-16.6875,-10.375,17.4375,-0.0986328125,1.06640625,0.35986328125
1969/12/31/18:00:10.110,114,1730347378,218496206,RU_myo,0.7510019618518897,0.5304744839446338,-0.18305062447934148,-0.34797319445039204,-29.4375,-14.6875,12.5625,-0.12255859375,0.97119140625,0.328125
1969/12/31/18:00:10.131,115,1730347378,239588136,RU_myo,0.7539349926293594,0.5254106554852271,-0.18396697439968338,-0.3488292165541442,-26.6875,-13.9375,11.125,-0.09521484375,0.8388671875,0.3935546875
1969/12/31/18:00:10.147,116,1730347378,256050540,RU_myo,0.7555011543598753,0.52289371379876,-0.18622023121279524,-0.34802614171594837,-3.4375,-9.5,14.375,-0.0458984375,0.80029296875,0.43798828125
1969/12/31/18:00:10.170,117,1730347378,278531929,RU_myo,0.7552780029737647,0.5237017347272427,-0.1889110569907711,-0.345838464914284,13.625,-3.125,15.25,-0.06591796875,0.96484375,0.42724609375
1969/12/31/18:00:10.191,118,1730347378,299698090,RU_myo,0.754912625948999,0.5246178864838007,-0.1904982459239025,-0.3443739517791278,9.625,-1.625,10.5625,-0.10205078125,1.0283203125,0.41796875
1969/12/31/18:00:10.207,119,1730347378,316017000,RU_myo,0.7552503331353325,0.5238046192797337,-0.19152865244695924,-0.34429991346504046,-2.375,-5.3125,4.875,-0.07421875,0.9453125,0.384765625
1969/12/31/18:00:10.230,120,1730347378,338571903,RU_myo,0.7562911486756573,0.521975781089034,-0.1926281063046061,-0.3441793065436229,-7.4375,-6.3125,7.0625,-0.05029296875,0.87255859375,0.37939453125
1969/12/31/18:00:10.251,121,1730347378,359591442,RU_myo,0.7569157114089471,0.5210089922253667,-0.19397452873620144,-0.3435143636649911,-1.5625,-4.9375,8.5,-0.05029296875,0.900390625,0.39111328125
1969/12/31/18:00:10.267,122,1730347378,376129215,RU_myo,0.7572781608608125,0.5205791435465358,-0.1954384356473218,-0.3425360714718207,3.125,-3.4375,9.3125,-0.05419921875,0.8818359375,0.40087890625
1969/12/31/18:00:10.290,123,1730347378,398589431,RU_myo,0.7571578525116509,0.52082450265876,-0.19726998624084288,-0.34137717606591406,5.5,-4.8125,10.625,-0.0673828125,0.92431640625,0.36474609375
1969/12/31/18:00:10.311,124,1730347378,419627643,RU_myo,0.7570396771888596,0.5204609632660974,-0.1994072906051765,-0.34095167594751025,1.0625,-8.75,8.3125,-0.0498046875,0.9345703125,0.35009765625
1969/12/31/18:00:10.327,125,1730347378,436117196,RU_myo,0.757420165080453,0.519005855723998,-0.20173048961164455,-0.3409580983269732,-5.8125,-12.3125,8.375,-0.03662109375,0.88037109375,0.31640625
1969/12/31/18:00:10.350,126,1730347378,458639275,RU_myo,0.7581971015080777,0.5169192764991073,-0.20447273305844957,-0.3407675428851713,-4.875,-14.375,12.625,-0.0283203125,0.77734375,0.3369140625
1969/12/31/18:00:10.371,127,1730347378,479569652,RU_myo,0.7583042474144626,0.5161156403844732,-0.20831394047211532,-0.33941805536637365,7.4375,-13.8125,17.9375,-0.02392578125,0.80712890625,0.3642578125
1969/12/31/18:00:10.387,128,1730347378,495440193,RU_myo,0.7577740302566458,0.5162507247612332,-0.21253074292014829,-0.33777861324529024,10.875,-14.6875,19.625,-0.04833984375,0.9013671875,0.345703125
1969/12/31/18:00:10.410,129,1730347378,518684132,RU_myo,0.7583284963580427,0.5141179108840787,-0.216743761314183,-0.33710948852104555,-9.375,-18.8125,16.8125,0.0166015625,0.89794921875,0.25439453125
1969/12/31/18:00:10.431,130,1730347378,539607385,RU_myo,0.7587846952714752,0.5126923616699156,-0.21966426305357456,-0.3363628101384411,-0.25,-7.8125,2.3125,0.16748046875,1.43603515625,0.5927734375
1969/12/31/18:00:10.447,131,1730347378,555626907,RU_myo,0.7609652947001923,0.508998924561234,-0.218334231101515,-0.3379083878607736,-14.1875,-1.625,-5.125,0.037109375,1.05908203125,0.64111328125
1969/12/31/18:00:10.470,132,1730347378,578776220,RU_myo,0.7685580172945201,0.4982931744911422,-0.21405122035037183,-0.3394179744420923,-71.625,3.125,8.8125,-0.00537109375,0.69384765625,0.4326171875
1969/12/31/18:00:10.491,133,1730347378,599756734,RU_myo,0.7705367000454609,0.4953798999975413,-0.2138752057160405,-0.3393071542738211,-18.8125,-0.5625,4.0625,0.04638671875,0.8583984375,0.392578125
1969/12/31/18:00:10.507,134,1730347378,615585159,RU_myo,0.7713808483647048,0.49634982266986705,-0.21417751202023652,-0.33576246612234856,17.375,13.5625,12.625,0.06298828125,0.85986328125,0.5546875
1969/12/31/18:00:10.530,135,1730347378,638685660,RU_myo,0.772687412878989,0.4976475611977563,-0.21290257493656004,-0.3316226174398884,9.5625,21.875,14.625,0.013671875,0.888671875,0.4814453125
1969/12/31/18:00:10.535,136,1730347378,644057299,RU_myo,0.7731521893261204,0.5000128471587257,-0.21088188317058074,-0.32825550439692713,11.5,23.25,8.1875,-0.01904296875,0.90673828125,0.44287109375
1969/12/31/18:00:10.558,137,1730347378,666629643,RU_myo,0.7735086724957135,0.502386955204941,-0.20855986222029932,-0.32526061041029414,7.875,22.75,5.6875,-0.02587890625,0.91455078125,0.39453125
1969/12/31/18:00:10.574,138,1730347378,683056923,RU_myo,0.7740767795455167,0.5037419698461717,-0.20667276261954892,-0.3230101180693009,-1.625,17.5,5.5,-0.02783203125,0.85986328125,0.30615234375
1969/12/31/18:00:10.595,139,1730347378,704049928,RU_myo,0.774470220365431,0.5040251461720963,-0.20605338986158842,-0.3220194564306103,-9.4375,7.125,2.125,0.00732421875,0.86181640625,0.2314453125
1969/12/31/18:00:10.618,140,1730347378,726559269,RU_myo,0.7747992456622225,0.5034913327136973,-0.20648698976487306,-0.32178522318664227,-17.5625,-1.625,2.25,0.01318359375,0.9375,0.1826171875
1969/12/31/18:00:10.634,141,1730347378,743057133,RU_myo,0.7755250519032469,0.5005572918824593,-0.20746180162278738,-0.32397977140740086,-39.625,-16.0,-0.25,-0.03173828125,1.03125,0.099609375
1969/12/31/18:00:10.655,142,1730347378,764133649,RU_myo,0.7779749093411763,0.49213962764929425,-0.20898996466218325,-0.32996487995436996,-73.3125,-37.4375,-6.375,-0.02587890625,1.0400390625,0.103515625
1969/12/31/18:00:10.678,143,1730347378,786577187,RU_myo,0.7799988435907735,0.48134211445002273,-0.21161718371775662,-0.33930773703115347,-78.3125,-54.4375,-20.6875,0.05126953125,0.95458984375,0.1875
1969/12/31/18:00:10.694,144,1730347378,803121334,RU_myo,0.7804835238383938,0.47035317390307835,-0.21509532634757955,-0.3512084301373362,-81.6875,-66.0,-35.625,0.1025390625,1.09619140625,0.1953125
1969/12/31/18:00:10.715,145,1730347378,823930128,RU_myo,0.782600712152376,0.4520309525971375,-0.2161276806841026,-0.3694495484837258,-115.3125,-87.5,-52.8125,0.0595703125,1.14306640625,0.166015625
1969/12/31/18:00:10.738,146,1730347378,846512430,RU_myo,0.7864647686616073,0.4253684883820521,-0.21564455007229016,-0.39246941889748815,-166.0,-108.5,-64.3125,0.0654296875,1.0029296875,0.1865234375
1969/12/31/18:00:10.754,147,1730347378,863067234,RU_myo,0.7890078107815754,0.3950227083916111,-0.21508962057664363,-0.4185214325465509,-182.0,-124.75,-77.625,0.1416015625,0.84716796875,0.259765625
1969/12/31/18:00:10.778,148,1730347378,886886442,RU_myo,0.7878504184010141,0.3660318375542982,-0.21655510415918794,-0.4454394448009452,-160.375,-136.5,-88.375,0.205078125,0.67919921875,0.3701171875
1969/12/31/18:00:10.798,149,1730347378,906548818,RU_myo,0.78264855762823,0.34106216486208757,-0.22045750527592348,-0.47173755766268344,-124.375,-140.625,-96.125,0.25732421875,0.52099609375,0.4951171875
1969/12/31/18:00:10.814,150,1730347378,922849932,RU_myo,0.773687491534451,0.32226806210964826,-0.22839528189664846,-0.49536507425793663,-73.3125,-140.75,-94.5,0.2998046875,0.466796875,0.56396484375
1969/12/31/18:00:10.835,151,1730347378,943972829,RU_myo,0.7617424920867409,0.3092747762342561,-0.24140156700345033,-0.5155800345077485,-23.8125,-144.6875,-85.25,0.27783203125,0.4365234375,0.517578125
1969/12/31/18:00:10.858,152,1730347378,966470846,RU_myo,0.748008841775062,0.2982879812121361,-0.2602008724999665,-0.532731225704834,8.3125,-161.9375,-69.25,0.20947265625,0.423828125,0.4306640625
1969/12/31/18:00:10.876,153,1730347378,984388904,RU_myo,0.7327484150941516,0.2869346355150026,-0.28388278872160755,-0.5478675363502794,26.0,-182.625,-56.5,0.24365234375,0.47265625,0.33544921875
1969/12/31/18:00:10.895,154,1730347379,3999888,RU_myo,0.7167843744278386,0.27251722001194645,-0.3090156069250806,-0.5625512243785242,20.6875,-197.5625,-50.8125,0.40869140625,0.50390625,0.41650390625
1969/12/31/18:00:10.918,155,1730347379,26553591,RU_myo,0.700983267404333,0.25311080626258325,-0.3338596841708055,-0.5771439074075205,-1.3125,-210.5,-43.375,0.53271484375,0.4775390625,0.36279296875
1969/12/31/18:00:10.933,156,1730347379,41444708,RU_myo,0.6862244290257781,0.22723592895694847,-0.3590120156123478,-0.5903983724954506,-25.6875,-229.6875,-21.125,0.55517578125,0.49755859375,0.3583984375
1969/12/31/18:00:10.955,157,1730347379,64041240,RU_myo,0.6724863887190059,0.19458037822074706,-0.3854986414185189,-0.6010751457709902,-43.8125,-252.625,8.25,0.5791015625,0.501953125,0.34765625
1969/12/31/18:00:10.978,158,1730347379,86476208,RU_myo,0.6573636959881386,0.15716912879939246,-0.41034875841487983,-0.6121966453817113,-66.5,-266.1875,10.5625,0.65625,0.546875,0.4287109375
1969/12/31/18:00:10.996,159,1730347379,104349259,RU_myo,0.6381790909657844,0.11730874262014515,-0.4383513993225195,-0.6219438539538392,-56.6875,-295.1875,9.125,0.71435546875,0.400390625,0.412109375
1969/12/31/18:00:11.015,160,1730347379,124085188,RU_myo,0.616008310393756,0.07928215547423849,-0.47032200930291135,-0.6269332571450176,-20.25,-308.5625,13.625,0.74267578125,0.2919921875,0.41552734375
1969/12/31/18:00:11.038,161,1730347379,146638524,RU_myo,0.5927086354877091,0.04095432956567324,-0.5062834034981514,-0.6250570627154391,12.4375,-324.5,36.375,0.8310546875,0.36474609375,0.478515625
1969/12/31/18:00:11.056,162,1730347379,164407316,RU_myo,0.5674311023674596,0.004333398759609512,-0.5442382639357467,-0.6179060428491084,40.5625,-330.5625,42.9375,0.9501953125,0.48681640625,0.46728515625
1969/12/31/18:00:11.084,163,1730347379,192837329,RU_myo,0.5414674731820477,-0.030393462764276347,-0.5827244627978123,-0.6052449201472461,67.4375,-329.5,52.1875,1.0166015625,0.447265625,0.50732421875
1969/12/31/18:00:11.099,164,1730347379,207940929,RU_myo,0.5166016000275745,-0.06585693837780635,-0.6209717247968505,-0.5858154722429891,87.125,-329.4375,77.25,1.2080078125,0.40185546875,0.43408203125
1969/12/31/18:00:11.113,165,1730347379,221410905,RU_myo,0.4914439087166816,-0.10040055015386752,-0.6542820046501275,-0.5659661407761785,74.9375,-315.25,80.9375,1.17138671875,0.67822265625,0.45166015625
1969/12/31/18:00:11.135,166,1730347379,243942894,RU_myo,0.4666740388805216,-0.13073709014936924,-0.6801746650908361,-0.5499868904462961,48.9375,-279.875,62.4375,1.1533203125,0.830078125,0.5029296875
1969/12/31/18:00:11.157,167,1730347379,266326544,RU_myo,0.44488539892240897,-0.1599121615004406,-0.6972658522828371,-0.5388185350098815,8.8125,-238.375,61.0625,1.17919921875,0.80517578125,0.50048828125
1969/12/31/18:00:11.172,168,1730347379,281377247,RU_myo,0.42593632589803965,-0.18962375190789643,-0.7074119434710099,-0.5312150423580079,-26.1875,-207.5625,69.625,1.15966796875,0.7919921875,0.4072265625
1969/12/31/18:00:11.198,169,1730347379,306807593,RU_myo,0.4082478502146401,-0.21532342884695024,-0.712740079953142,-0.5281771409414704,-48.75,-173.0,50.5,1.1923828125,0.72509765625,0.32568359375
1969/12/31/18:00:11.218,170,1730347379,326520799,RU_myo,0.3926331091275215,-0.23485966173211606,-0.7134289464622413,-0.5307535390910814,-68.75,-128.5625,23.6875,1.13232421875,0.6630859375,0.3310546875
1969/12/31/18:00:11.241,171,1730347379,349187227,RU_myo,0.38358917830278777,-0.24846325296271263,-0.7106012415241619,-0.534949745079385,-52.3125,-91.5,12.0,1.12841796875,0.6005859375,0.25048828125
1969/12/31/18:00:11.255,172,1730347379,364054040,RU_myo,0.3790112815598535,-0.2588994937804989,-0.7099290220779736,-0.5341556741081864,-12.75,-75.875,16.8125,1.08447265625,0.49365234375,0.2578125
1969/12/31/18:00:11.278,173,1730347379,386474164,RU_myo,0.37889442400116397,-0.26354157906524256,-0.7111594440176485,-0.5303179204487941,27.25,-51.25,19.25,1.00634765625,0.58349609375,0.30224609375
1969/12/31/18:00:11.294,174,1730347379,402888097,RU_myo,0.3800654797621139,-0.2612912026435859,-0.714293610029873,-0.5263665806116059,44.25,-17.0625,5.3125,0.8818359375,0.72119140625,0.10498046875
1969/12/31/18:00:11.317,175,1730347379,425399217,RU_myo,0.38397002738138925,-0.2553696700943781,-0.7156942522769305,-0.5245332086020759,41.6875,12.125,-6.875,0.90576171875,0.68212890625,0.09912109375
1969/12/31/18:00:11.338,176,1730347379,446605665,RU_myo,0.39092178395911537,-0.2462105349712836,-0.7156828787985303,-0.5237924668129786,46.3125,35.25,-17.0625,0.96484375,0.626953125,0.16943359375
1969/12/31/18:00:11.354,177,1730347379,463082271,RU_myo,0.39927931426761337,-0.23479479088772678,-0.7164689498910904,-0.5216509170047832,55.0,52.75,-24.75,0.978515625,0.5595703125,0.0283203125
1969/12/31/18:00:11.377,178,1730347379,485402208,RU_myo,0.4073360465592122,-0.22289350345133996,-0.7193991580451654,-0.5165856005509697,63.3125,59.9375,-23.5625,0.84521484375,0.46484375,-0.22265625
1969/12/31/18:00:11.398,179,1730347379,506656108,RU_myo,0.4131950950641527,-0.21172434043981472,-0.7248918972048658,-0.5088952293419358,68.125,53.4375,-19.0625,0.79345703125,0.5234375,-0.46533203125
1969/12/31/18:00:11.414,180,1730347379,522965871,RU_myo,0.41746919219110173,-0.20049507256546334,-0.7322189910404455,-0.4993761594309349,79.875,38.9375,-25.0,0.84765625,0.50146484375,-0.4599609375
1969/12/31/18:00:11.437,181,1730347379,545390289,RU_myo,0.42442005886884693,-0.19103174924640362,-0.7376999211313996,-0.4890534845723426,82.875,37.6875,-13.625,0.8505859375,0.373046875,-0.27490234375
1969/12/31/18:00:11.459,182,1730347379,567920350,RU_myo,0.43150249392936363,-0.18450241006343227,-0.7401457912137754,-0.4816104921635938,59.375,35.4375,-0.25,0.79833984375,0.4052734375,-0.18408203125
1969/12/31/18:00:11.474,183,1730347379,583059678,RU_myo,0.4356673142133982,-0.18023614161840362,-0.7420626514719103,-0.47649968087195294,37.375,26.125,3.9375,0.74072265625,0.49365234375,-0.27001953125
1969/12/31/18:00:11.495,184,1730347379,604059348,RU_myo,0.4369342351116075,-0.17876524300068425,-0.7438684812879275,-0.4730656874354058,17.25,12.6875,7.0,0.71630859375,0.53369140625,-0.3466796875
1969/12/31/18:00:11.519,185,1730347379,628157555,RU_myo,0.4367667540082626,-0.18005337120240006,-0.7451157815725084,-0.47076327189291917,2.375,1.75,10.875,0.72021484375,0.498046875,-0.35498046875
1969/12/31/18:00:11.549,186,1730347379,657859246,RU_myo,0.43607632977578914,-0.18334125887284403,-0.7456935755354221,-0.46921691019121997,-8.0625,-3.875,15.625,0.70849609375,0.470703125,-0.3466796875
1969/12/31/18:00:11.555,187,1730347379,663976535,RU_myo,0.43455536029661607,-0.18773768093713358,-0.7462511784194839,-0.4680014751059624,-11.5625,-12.3125,17.0,0.75244140625,0.48388671875,-0.31591796875
1969/12/31/18:00:11.579,188,1730347379,688020861,RU_myo,0.43297159990630757,-0.19121793381822128,-0.7467447878282596,-0.4672724230170131,-7.75,-15.5625,11.6875,0.82861328125,0.53173828125,-0.2373046875
1969/12/31/18:00:11.611,189,1730347379,719292740,RU_myo,0.43162023315466846,-0.19438778882884886,-0.7467908898303908,-0.4671410159171143,-8.75,-15.0625,8.4375,0.85107421875,0.515625,-0.1875
1969/12/31/18:00:11.615,190,1730347379,723996890,RU_myo,0.4307696227418882,-0.1994552461207836,-0.7462482540755266,-0.46665691916753715,-13.25,-17.625,16.375,0.84033203125,0.45263671875,-0.17529296875
1969/12/31/18:00:11.633,191,1730347379,741897034,RU_myo,0.4302900700857572,-0.2053185525912748,-0.7453478490620237,-0.4659949907950009,-13.5625,-18.5625,22.6875,0.81884765625,0.44482421875,-0.1513671875
1969/12/31/18:00:11.656,192,1730347379,764303380,RU_myo,0.42924264069391616,-0.21019645308543256,-0.7452086794927791,-0.4650077746974189,-9.6875,-19.4375,19.0,0.802734375,0.4638671875,-0.1767578125
1969/12/31/18:00:11.675,193,1730347379,783908320,RU_myo,0.42819968564739996,-0.21458809788145072,-0.7453213456565063,-0.46378127298098526,-7.3125,-17.5,16.625,0.85009765625,0.48095703125,-0.21044921875
1969/12/31/18:00:11.693,194,1730347379,801992238,RU_myo,0.4278475995003046,-0.21801307067262313,-0.7454679857769929,-0.46227071592229774,-1.6875,-13.9375,15.625,0.86669921875,0.49169921875,-0.19677734375
1969/12/31/18:00:11.716,195,1730347379,824426026,RU_myo,0.4275245727201544,-0.2202010932725649,-0.7462302570520097,-0.4602984050614425,5.4375,-12.75,12.875,0.8408203125,0.50634765625,-0.19091796875
1969/12/31/18:00:11.737,196,1730347379,845472950,RU_myo,0.4268527167544234,-0.2222148615531678,-0.7471448325003791,-0.45846691567904324,5.125,-13.1875,11.5625,0.8408203125,0.517578125,-0.2080078125
1969/12/31/18:00:11.753,197,1730347379,862038410,RU_myo,0.42594560421487776,-0.22459948753557102,-0.7479529129751149,-0.45682803375101877,1.1875,-12.5,11.3125,0.85009765625,0.509765625,-0.2509765625
