time,.header.seq,.header.stamp.secs,.header.stamp.nsecs,.header.frame_id,.orientation.x,.orientation.y,.orientation.z,.orientation.w,.angular_velocity.x,.angular_velocity.y,.angular_velocity.z,.linear_acceleration.x,.linear_acceleration.y,.linear_acceleration.z
1969/12/31/18:00:03.590000,1,1731183481,62971287,RL_myo,-0.840231250956324,-0.3668649705453958,0.3173067679030964,-0.2423591412470082,25.25,-7.6875,-8.0,0.74951171875,0.41064453125,0.55029296875
1969/12/31/18:00:03.611000,2,1731183481,83989225,RL_myo,-0.8392148798909249,-0.3701700542937061,0.3163382343617937,-0.2421211220747126,20.875,-3.125,-9.9375,0.68017578125,0.40380859375,0.51904296875
1969/12/31/18:00:03.627000,3,1731183481,100600452,RL_myo,-0.8382338144111081,-0.3729145628405323,0.3154820581542899,-0.2424249825863493,17.6875,-1.875,-4.125,0.64599609375,0.427734375,0.49658203125
1969/12/31/18:00:03.650000,4,1731183481,123238128,RL_myo,-0.8365575359314272,-0.376380705047721,0.3147389810168797,-0.2438204826764465,25.125,-3.1875,1.1875,0.6513671875,0.4375,0.5126953125
1969/12/31/18:00:03.671000,5,1731183481,143940813,RL_myo,-0.8328881824147285,-0.3838230951275905,0.3131493561933005,-0.2468088085062769,53.875,-5.5,1.375,0.66748046875,0.431640625,0.5322265625
1969/12/31/18:00:03.687000,6,1731183481,160616505,RL_myo,-0.8259010980894538,-0.3989739490253295,0.3086448309960366,-0.2518839662884404,104.5,-2.75,-3.5,0.71435546875,0.47314453125,0.60595703125
1969/12/31/18:00:03.710000,7,1731183481,183068257,RL_myo,-0.8155591964169692,-0.4226406821213433,0.3012497338557329,-0.255903592799248,155.5,-10.875,-24.875,0.77197265625,0.57373046875,0.71240234375
1969/12/31/18:00:03.731000,8,1731183481,204070570,RL_myo,-0.8042449038124012,-0.4526891137266889,0.2894231869073694,-0.2539624379421265,181.5625,-13.1875,-72.5,0.95751953125,0.83837890625,0.58935546875
1969/12/31/18:00:03.747000,9,1731183481,220506903,RL_myo,-0.7969248266200567,-0.4811333697055914,0.2708702137198293,-0.2450527057424774,157.9375,12.625,-124.1875,1.2373046875,1.314453125,0.39697265625
1969/12/31/18:00:03.770000,10,1731183481,243262463,RL_myo,-0.7992886601310015,-0.4949169017258927,0.2490147933212039,-0.2327800053252626,62.8125,54.3125,-139.5625,1.240234375,1.47607421875,0.38427734375
1969/12/31/18:00:03.791000,11,1731183481,264210367,RL_myo,-0.8120752003077284,-0.4931895155333499,0.2206261723367231,-0.2205041108305894,-26.875,116.0625,-147.0625,0.75439453125,1.35107421875,0.55029296875
1969/12/31/18:00:03.808000,12,1731183481,281096561,RL_myo,-0.8280475558514522,-0.4857691823558419,0.1858483679197812,-0.20934643742688,-51.0,156.9375,-154.8125,0.30859375,1.119140625,0.6181640625
1969/12/31/18:00:03.830000,13,1731183481,303251682,RL_myo,-0.8420653274512546,-0.4796543747509901,0.1478207018255373,-0.1975011523977864,-36.75,167.1875,-167.0,0.1181640625,0.93310546875,0.482421875
1969/12/31/18:00:03.851000,14,1731183481,324254576,RL_myo,-0.8501031128802035,-0.4832447733351605,0.1028985460776813,-0.1822390620331888,30.9375,175.9375,-204.75,0.05078125,0.8564453125,0.38818359375
1969/12/31/18:00:03.867000,15,1731183481,340574542,RL_myo,-0.8498686544104959,-0.4965552152447967,0.05175501751814,-0.1687530936764826,109.4375,194.25,-208.3125,-0.2734375,0.740234375,0.3330078125
1969/12/31/18:00:03.890000,16,1731183481,363087929,RL_myo,-0.8421562425780799,-0.516132715666557,-0.0028073909093841,-0.1561153466566221,165.0,203.0,-204.875,-0.56884765625,0.7919921875,0.310546875
1969/12/31/18:00:03.911000,17,1731183481,384030326,RL_myo,-0.8289191725386669,-0.53841296864498,-0.0557820736047961,-0.141041982604687,193.6875,186.9375,-207.625,-0.587890625,0.85009765625,0.31396484375
1969/12/31/18:00:03.927000,18,1731183481,399867192,RL_myo,-0.8138112657637946,-0.5572904355549129,-0.1068073882620849,-0.125422390216334,183.625,180.125,-204.9375,-0.58984375,0.802734375,0.34228515625
1969/12/31/18:00:03.950000,19,1731183481,423114796,RL_myo,-0.7967186128326846,-0.5740109203072927,-0.1514827330359064,-0.1131543058213419,174.9375,164.8125,-168.1875,-0.66455078125,0.73583984375,0.39697265625
1969/12/31/18:00:03.971000,20,1731183481,444114392,RL_myo,-0.7798735248768652,-0.5882314159307581,-0.1877970602634304,-0.1025346315380445,159.0625,134.5,-135.1875,-0.72802734375,0.78857421875,0.53466796875
1969/12/31/18:00:03.987000,21,1731183481,460581684,RL_myo,-0.762413620935919,-0.6034248695319749,-0.2153824582358996,-0.0906327431227857,161.8125,92.4375,-111.5625,-0.67138671875,0.74609375,0.47802734375
1969/12/31/18:00:04.010000,22,1731183481,483192023,RL_myo,-0.7445733403658665,-0.6200098823587572,-0.2349067858252639,-0.0775698947217226,165.3125,53.625,-87.9375,-0.595703125,0.63623046875,0.3759765625
1969/12/31/18:00:04.031000,23,1731183481,504206389,RL_myo,-0.7297534845885545,-0.6352157119342373,-0.2438818202237905,-0.0669515407371116,141.5,14.75,-44.75,-0.5166015625,0.6513671875,0.390625
1969/12/31/18:00:04.047000,24,1731183481,519988114,RL_myo,-0.7218851136402433,-0.6449849408987227,-0.2438834049802513,-0.0582854483874224,99.625,-19.6875,-11.375,-0.314453125,0.68310546875,0.3046875
1969/12/31/18:00:04.070000,25,1731183481,543043380,RL_myo,-0.7175494043365821,-0.6528558287138231,-0.2373521845253863,-0.0506562903461225,70.4375,-48.125,7.9375,-0.2197265625,0.6162109375,0.22216796875
1969/12/31/18:00:04.092000,26,1731183481,565710614,RL_myo,-0.7136036250101879,-0.6623354891045637,-0.2238708601212255,-0.0443103174612894,66.5,-74.0625,36.875,-0.12841796875,0.56689453125,0.13134765625
1969/12/31/18:00:04.107000,27,1731183481,579927364,RL_myo,-0.708774782935577,-0.6744132740409994,-0.2020798507103845,-0.0443709004731046,68.5,-84.0,90.125,0.03271484375,0.4677734375,0.09814453125
1969/12/31/18:00:04.130000,28,1731183481,603130210,RL_myo,-0.7034031182493877,-0.6870463255647165,-0.1754693245090663,-0.0490093452454887,60.0,-87.3125,131.9375,0.24658203125,0.57861328125,-0.00146484375
1969/12/31/18:00:04.152000,29,1731183481,625473158,RL_myo,-0.6976094775387596,-0.6990132411418559,-0.1478834439261954,-0.0534040501177965,58.3125,-91.6875,129.0,0.52783203125,0.68798828125,-0.05029296875
1969/12/31/18:00:04.167000,30,1731183481,639937727,RL_myo,-0.6910463997949169,-0.7095385890678887,-0.1252342323040863,-0.0576736596137239,58.375,-71.5,105.25,0.73388671875,0.62841796875,-0.0107421875
1969/12/31/18:00:04.190000,31,1731183481,663051200,RL_myo,-0.6834259850485949,-0.7193122575265886,-0.1060109783916243,-0.0654253130891314,56.25,-43.0625,106.875,0.63134765625,0.65380859375,-0.13623046875
1969/12/31/18:00:04.212000,32,1731183481,685482923,RL_myo,-0.6718594385769839,-0.7316114725856019,-0.0874613531505103,-0.075498739600266,66.375,-31.25,98.8125,0.41015625,0.75048828125,-0.30224609375
1969/12/31/18:00:04.233000,33,1731183481,706645420,RL_myo,-0.6634439269730866,-0.7402252020542405,-0.0744009334848383,-0.0798329950764303,47.75,-33.5,59.75,0.29736328125,0.95458984375,-0.287109375
1969/12/31/18:00:04.250000,34,1731183481,723081238,RL_myo,-0.6613926704625719,-0.7426859284727357,-0.0660965453641197,-0.0812932580101638,1.375,-26.875,28.875,0.2314453125,1.09716796875,-0.29736328125
1969/12/31/18:00:04.272000,35,1731183481,745639715,RL_myo,-0.6582325115696057,-0.7458137497803043,-0.0599336417581226,-0.083064853801227,-4.5625,-15.5625,29.875,0.1259765625,0.9990234375,-0.5
1969/12/31/18:00:04.287000,36,1731183481,759856952,RL_myo,-0.6552991387558335,-0.7486168609461724,-0.0522432767788948,-0.086176993939018,0.9375,-16.0625,39.9375,0.15771484375,0.96826171875,-0.37353515625
1969/12/31/18:00:04.310000,37,1731183481,783226906,RL_myo,-0.6568757079506711,-0.7473845507352892,-0.0452239059362117,-0.0887999772431688,-19.875,-15.625,32.4375,0.16943359375,1.041015625,-0.18603515625
1969/12/31/18:00:04.332000,38,1731183481,805576545,RL_myo,-0.6609282189709542,-0.7437502332976311,-0.0393663959032473,-0.0919769901181298,-45.5,-7.25,31.1875,0.123046875,0.97265625,-0.26025390625
1969/12/31/18:00:04.353000,39,1731183481,826291338,RL_myo,-0.664106719656934,-0.7407649348843128,-0.0330802170806045,-0.0955786345908242,-38.625,-7.125,34.625,0.1298828125,0.85302734375,-0.224609375
1969/12/31/18:00:04.370000,40,1731183481,843003198,RL_myo,-0.6646951343567589,-0.7400691579478522,-0.02868485108325,-0.0982608728596439,-9.75,-5.5,22.5625,0.17724609375,0.8486328125,-0.1083984375
1969/12/31/18:00:04.393000,41,1731183481,865784533,RL_myo,-0.6634789422151389,-0.7408675264050751,-0.027525434912982,-0.1007638426637102,8.3125,5.625,13.0,0.1376953125,0.92724609375,-0.07275390625
1969/12/31/18:00:04.414000,42,1731183481,886667544,RL_myo,-0.6604932194281005,-0.7431311624243717,-0.0264880851258358,-0.1039382695145125,12.3125,9.875,21.0,0.07666015625,0.93603515625,-0.212890625
1969/12/31/18:00:04.430000,43,1731183481,902994750,RL_myo,-0.6559234500047006,-0.7469849357595172,-0.0250846317997517,-0.105587379595062,28.25,0.6875,16.1875,0.15283203125,1.27978515625,-0.2197265625
1969/12/31/18:00:04.452000,44,1731183481,925598228,RL_myo,-0.6534965077786516,-0.7492596553180843,-0.0275875989087466,-0.1038807374838204,18.625,1.625,-13.4375,0.12353515625,1.2529296875,-0.18798828125
1969/12/31/18:00:04.474000,45,1731183481,946674673,RL_myo,-0.6520082935741321,-0.7507585902139287,-0.0292955144543277,-0.1019239773723486,1.0,0.375,-1.5,-0.0380859375,1.13916015625,-0.32666015625
1969/12/31/18:00:04.490000,46,1731183481,963209070,RL_myo,-0.6500600731128803,-0.7526561657711051,-0.0269764859934178,-0.1010092405409648,8.0625,-11.5625,17.5625,-0.005859375,1.10107421875,-0.2392578125
1969/12/31/18:00:04.512000,47,1731183481,985712293,RL_myo,-0.6475662504853407,-0.7551684464896437,-0.0240472292828675,-0.0989964616670332,13.1875,-19.25,12.6875,0.0380859375,1.01953125,-0.22509765625
1969/12/31/18:00:04.534000,48,1731183482,6728280,RL_myo,-0.6434612170755286,-0.7591170082505383,-0.0214222600012814,-0.0961255256467758,25.75,-22.0625,10.1875,0.0166015625,0.9482421875,-0.2265625
1969/12/31/18:00:04.550000,49,1731183482,23188366,RL_myo,-0.6392035396754205,-0.7630404519261059,-0.0172114387652505,-0.0942967123840852,23.4375,-23.5625,19.5,0.0458984375,0.9794921875,-0.2734375
1969/12/31/18:00:04.572000,50,1731183482,45515916,RL_myo,-0.6341808577926006,-0.767230060948011,-0.0128776981035741,-0.0949043628012216,28.375,-13.8125,26.6875,0.09130859375,0.93896484375,-0.26513671875
1969/12/31/18:00:04.593000,51,1731183482,66647161,RL_myo,-0.6266813308375959,-0.7730982097506649,-0.0094600317763758,-0.097468843528208,43.125,-1.375,33.9375,0.06494140625,0.99072265625,-0.33056640625
1969/12/31/18:00:04.610000,52,1731183482,83147492,RL_myo,-0.617229646206057,-0.7806157594161446,-0.0090939599806884,-0.0978973946914383,53.3125,1.0,18.25,0.02880859375,1.10986328125,-0.47607421875
1969/12/31/18:00:04.632000,53,1731183482,105265055,RL_myo,-0.607194604921691,-0.7885168655732483,-0.0112906826726819,-0.0970998709850648,55.25,5.5,4.125,0.005859375,1.14208984375,-0.5673828125
1969/12/31/18:00:04.653000,54,1731183482,126626364,RL_myo,-0.6006121969032119,-0.7934110923424199,-0.012511482610015,-0.0980167857155328,34.3125,8.8125,4.4375,0.1220703125,1.08837890625,-0.48974609375
1969/12/31/18:00:04.670000,55,1731183482,143046734,RL_myo,-0.5968454927672678,-0.7963026019157934,-0.0153804135573526,-0.0971651523147039,24.1875,5.1875,-14.3125,0.1728515625,1.17236328125,-0.3974609375
1969/12/31/18:00:04.692000,56,1731183482,165494812,RL_myo,-0.5965298886338027,-0.7969600251463266,-0.0211171824705643,-0.0925249960270968,7.125,-1.625,-40.875,0.1552734375,1.296875,-0.3681640625
1969/12/31/18:00:04.714000,57,1731183482,186621404,RL_myo,-0.5970115880235289,-0.7970123009608734,-0.0280135267739521,-0.0869700994616161,-0.1875,-1.1875,-48.8125,0.1015625,1.2138671875,-0.37939453125
1969/12/31/18:00:04.730000,58,1731183482,203259093,RL_myo,-0.5966427990256776,-0.7975581114635388,-0.0352151079212168,-0.0817210216750595,8.875,1.0,-49.1875,0.0830078125,1.09716796875,-0.30615234375
1969/12/31/18:00:04.752000,59,1731183482,225613375,RL_myo,-0.5946930432710164,-0.7992713561860868,-0.044492121156052,-0.074336630408877,21.5,-0.8125,-59.75,-0.0283203125,1.06591796875,-0.2978515625
1969/12/31/18:00:04.773000,60,1731183482,246566835,RL_myo,-0.5904192902675385,-0.8027480798934188,-0.0548673704724536,-0.0631676623348048,38.875,-12.0,-68.625,-0.169921875,1.0478515625,-0.32177734375
1969/12/31/18:00:04.791000,61,1731183482,263900461,RL_myo,-0.5852954583371224,-0.806841080210298,-0.0623135206425653,-0.050534373253716,39.3125,-28.8125,-62.0625,-0.16796875,0.9951171875,-0.390625
1969/12/31/18:00:04.814000,62,1731183482,287178549,RL_myo,-0.5805215586672478,-0.8106063227731692,-0.0673776073137764,-0.0370454779342955,38.625,-41.3125,-55.0,-0.18310546875,0.98046875,-0.37255859375
1969/12/31/18:00:04.834000,63,1731183482,306768644,RL_myo,-0.5783445259720048,-0.8125264535949029,-0.0698212471203011,-0.0210562327416992,30.0,-61.125,-51.75,-0.22265625,0.96875,-0.234375
1969/12/31/18:00:04.850000,64,1731183482,323205757,RL_myo,-0.5785815710272573,-0.8126995991349112,-0.0688438831348888,-0.0048215130918938,14.8125,-77.1875,-45.4375,-0.12548828125,0.90966796875,-0.18408203125
1969/12/31/18:00:04.872000,65,1731183482,345633439,RL_myo,-0.5799271168935123,-0.8119712021838863,-0.0656095191181357,0.0090937845103276,1.875,-77.75,-37.8125,0.01904296875,0.81787109375,-0.205078125
1969/12/31/18:00:04.894000,66,1731183482,367267585,RL_myo,-0.5797913367350008,-0.8120740554311496,-0.0624954030333306,0.0217269174608063,9.0625,-70.1875,-31.375,-0.02734375,0.75341796875,-0.21484375
1969/12/31/18:00:04.910000,67,1731183482,382916453,RL_myo,-0.5758586353158424,-0.814685857360452,-0.0589591353169161,0.0346064489903638,26.875,-68.5,-19.9375,-0.1748046875,0.6416015625,-0.30859375
1969/12/31/18:00:04.932000,68,1731183482,405477968,RL_myo,-0.569198327835626,-0.8190694359376046,-0.0540756721490847,0.0470568207979055,45.8125,-70.125,-13.1875,-0.18310546875,0.70361328125,-0.33935546875
1969/12/31/18:00:04.953000,69,1731183482,426715737,RL_myo,-0.5624238241424457,-0.8234641601009092,-0.0483385424547821,0.0570053013292506,47.625,-64.375,-10.375,-0.0634765625,0.7978515625,-0.35888671875
1969/12/31/18:00:04.969000,70,1731183482,442489493,RL_myo,-0.5569117151965344,-0.8269147210079829,-0.0422947746445148,0.0653646517233411,41.3125,-57.0,-1.0625,-0.109375,0.7978515625,-0.326171875
1969/12/31/18:00:04.993000,71,1731183482,465754852,RL_myo,-0.5525971393016565,-0.8295060437650557,-0.0349111512790531,0.0730570770647319,33.75,-58.4375,8.0,-0.1083984375,0.76611328125,-0.3095703125
1969/12/31/18:00:05.013000,72,1731183482,486513724,RL_myo,-0.5492309316340203,-0.8314449362873939,-0.0280749226082508,0.0790980428267241,25.875,-50.6875,7.6875,-0.0625,0.73291015625,-0.31494140625
1969/12/31/18:00:05.029000,73,1731183482,502431361,RL_myo,-0.5470362905162283,-0.8327304638852414,-0.0217276491603009,0.0826993387983364,21.125,-38.6875,11.8125,-0.03076171875,0.75,-0.26904296875
1969/12/31/18:00:05.052000,74,1731183482,525485775,RL_myo,-0.5449457142518327,-0.8339274543103418,-0.0150136236651305,0.0858706036456858,25.25,-35.0,18.1875,-0.091796875,0.77783203125,-0.212890625
1969/12/31/18:00:05.075000,75,1731183482,548262451,RL_myo,-0.5407353573863328,-0.8364919648235979,-0.0081171334686661,0.088434033053363,34.375,-33.1875,20.3125,-0.08837890625,0.77099609375,-0.298828125
1969/12/31/18:00:05.089000,76,1731183482,562457660,RL_myo,-0.5365937485715591,-0.8390685686262277,-0.0019530254725079,0.0895950435513021,31.6875,-25.125,19.1875,-0.064453125,0.830078125,-0.3671875
1969/12/31/18:00:05.112000,77,1731183482,585709873,RL_myo,-0.5354292942605455,-0.8397323218660487,0.0041501415718359,0.0902655791874326,15.5625,-22.125,23.6875,-0.0986328125,0.87451171875,-0.322265625
1969/12/31/18:00:05.135000,78,1731183482,608225271,RL_myo,-0.5369706798559545,-0.8385970835668123,0.0106808216611493,0.0911226670862627,-2.625,-25.3125,26.5,-0.0966796875,0.916015625,-0.33251953125
1969/12/31/18:00:05.149000,79,1731183482,622424372,RL_myo,-0.5391627881589299,-0.8370633506452031,0.0164177937530849,0.0914269704168074,-8.3125,-19.6875,26.375,-0.10546875,0.8642578125,-0.32373046875
1969/12/31/18:00:05.173000,80,1731183482,646503282,RL_myo,-0.5417356264826172,-0.8353690310576365,0.0218500849798081,0.0905740952794281,-8.25,-12.3125,30.5,-0.12890625,0.873046875,-0.28076171875
1969/12/31/18:00:05.195000,81,1731183482,668204868,RL_myo,-0.5432371652094692,-0.8343551607211159,0.0267926205512815,0.0895935466270644,-1.3125,-9.5625,29.0625,-0.14013671875,0.8984375,-0.28759765625
1969/12/31/18:00:05.201000,82,1731183482,673638511,RL_myo,-0.5432471420664773,-0.8343094519771648,0.0307602021796994,0.0886797098553636,4.875,-7.625,22.0625,-0.12548828125,0.95068359375,-0.36669921875
1969/12/31/18:00:05.223000,83,1731183482,696008142,RL_myo,-0.5430770814798374,-0.8344515461892937,0.0342398564520328,0.0870949646293243,7.125,-3.4375,19.75,-0.08544921875,0.96533203125,-0.35595703125
1969/12/31/18:00:05.238000,84,1731183482,710984722,RL_myo,-0.5444267274995775,-0.8336686850803509,0.0375361476919551,0.0847767628359768,-2.875,0.75,22.6875,-0.09130859375,0.978515625,-0.359375
1969/12/31/18:00:05.263000,85,1731183482,736363860,RL_myo,-0.5458065399406621,-0.832716586263043,0.0410743376249654,0.0836134361756353,-6.9375,-5.125,23.1875,-0.12646484375,0.9404296875,-0.39208984375
1969/12/31/18:00:05.283000,86,1731183482,755884823,RL_myo,-0.5463080950390248,-0.8323706625116992,0.0449204287731786,0.0817844762989937,-2.5625,-5.0625,20.5625,-0.02783203125,0.92236328125,-0.4130859375
1969/12/31/18:00:05.298000,87,1731183482,770969325,RL_myo,-0.5464312636372675,-0.8323113081895919,0.048338384988352,0.079587441950519,2.4375,-1.1875,20.5,-0.04541015625,0.982421875,-0.400390625
1969/12/31/18:00:05.323000,88,1731183482,796478672,RL_myo,-0.5466673380134949,-0.832115941328122,0.0511451634760867,0.0782435555803617,-0.3125,-2.3125,17.875,-0.08447265625,1.02001953125,-0.43505859375
1969/12/31/18:00:05.343000,89,1731183482,815996223,RL_myo,-0.5481908440027199,-0.8310138646115603,0.0538913955972391,0.0774498086216267,-9.0,-6.0625,14.5,-0.04443359375,1.0068359375,-0.42041015625
1969/12/31/18:00:05.358000,90,1731183482,830937805,RL_myo,-0.5507771946224665,-0.8292785619830954,0.057494693853542,0.0750726894265994,-14.0625,-3.25,18.0,0.06396484375,0.9521484375,-0.37353515625
1969/12/31/18:00:05.380000,91,1731183482,853508911,RL_myo,-0.5525951096596677,-0.8281602654044656,0.0598736252016936,0.0721413098760467,-9.375,4.4375,16.1875,0.02734375,0.98876953125,-0.39453125
1969/12/31/18:00:05.403000,92,1731183482,875876322,RL_myo,-0.5530806901766929,-0.8279121123644714,0.0604226311272264,0.0707982344521037,-2.9375,4.9375,8.3125,-0.0732421875,1.0361328125,-0.42724609375
1969/12/31/18:00:05.418000,93,1731183482,890894699,RL_myo,-0.5533825702091106,-0.8277851328715307,0.0606053702677453,0.0697602600362869,-3.0625,4.75,5.125,-0.06201171875,0.939453125,-0.4091796875
1969/12/31/18:00:05.440000,94,1731183482,913617446,RL_myo,-0.5538006381877769,-0.8277104094228157,0.061702936434631,0.0662803056063396,-2.0,10.9375,11.25,0.037109375,0.8828125,-0.38525390625
1969/12/31/18:00:05.472000,95,1731183482,944752000,RL_myo,-0.5528426035917393,-0.8286535691063198,0.0617049980383361,0.0623763679477542,11.0,16.8125,7.75,0.02490234375,0.904296875,-0.341796875
1969/12/31/18:00:05.478000,96,1731183482,951027537,RL_myo,-0.5503389537967028,-0.8305436933864402,0.0607893532196424,0.0602400518351276,18.125,14.75,5.0,-0.09716796875,0.94287109375,-0.3955078125
1969/12/31/18:00:05.500000,97,1731183482,973625385,RL_myo,-0.5480669831624047,-0.832109715861495,0.0612150539100102,0.0588958395046459,17.125,5.6875,7.0625,-0.068359375,0.9560546875,-0.396484375
1969/12/31/18:00:05.523000,98,1731183482,995932259,RL_myo,-0.5460216774150758,-0.8336199497132915,0.0625611691650405,0.0549927935782453,17.625,10.25,8.5,0.10791015625,1.16845703125,-0.48486328125
1969/12/31/18:00:05.538000,99,1731183483,11014067,RL_myo,-0.5487481257006582,-0.8322466290795436,0.0581034607570933,0.0535259822310618,-9.0625,19.5625,-20.875,0.05322265625,1.0966796875,-0.3291015625
1969/12/31/18:00:05.568000,100,1731183483,41567858,RL_myo,-0.5461172691938908,-0.834189856430722,0.0552342566629941,0.0532201898454484,10.3125,14.3125,-4.0625,-0.1865234375,0.935546875,-0.51904296875
1969/12/31/18:00:05.578000,101,1731183483,51267867,RL_myo,-0.5431309397966252,-0.8361494409724425,0.0549905581252679,0.0532816395597768,21.5,0.0625,-2.625,-0.03466796875,1.0185546875,-0.43408203125
1969/12/31/18:00:05.601000,102,1731183483,74003758,RL_myo,-0.5410030752901853,-0.8376880875854912,0.0523669493004263,0.0534045228879639,18.625,4.8125,-20.0625,0.05712890625,1.021484375,-0.3896484375
1969/12/31/18:00:05.620000,103,1731183483,93526474,RL_myo,-0.5395366335340916,-0.8387841577668576,0.0504747506711192,0.0528550593484754,9.4375,6.8125,-12.25,0.0224609375,0.982421875,-0.44921875
1969/12/31/18:00:05.637000,104,1731183483,109984873,RL_myo,-0.5395253979573841,-0.8388887550819282,0.0487647955846097,0.0529149909535126,-2.1875,3.875,-10.25,-0.00830078125,0.90576171875,-0.4404296875
1969/12/31/18:00:05.658000,105,1731183483,131090170,RL_myo,-0.5412957425173508,-0.8378518382318403,0.0474831534196075,0.0524267722203635,-17.875,4.9375,-6.8125,0.015625,0.7529296875,-0.42822265625
1969/12/31/18:00:05.680000,106,1731183483,153506766,RL_myo,-0.5456375449791638,-0.8351184035738142,0.0476669935826316,0.0508407242693113,-41.0625,4.3125,1.625,0.07275390625,0.7314453125,-0.513671875
1969/12/31/18:00:05.697000,107,1731183483,169900247,RL_myo,-0.5541735973599293,-0.8296735553426078,0.0469338652389631,0.0482765765982052,-74.25,9.0,-4.9375,0.18115234375,0.78515625,-0.5771484375
1969/12/31/18:00:05.718000,108,1731183483,191078252,RL_myo,-0.5695782639509435,-0.819638502635793,0.0408934244371123,0.0458372563466736,-111.5,29.5625,-19.625,0.33349609375,0.7646484375,-0.61669921875
1969/12/31/18:00:05.749000,109,1731183483,221849943,RL_myo,-0.5916027777215714,-0.8047335834374209,0.0275263440371844,0.0406486588220949,-159.0625,66.1875,-46.0,0.5537109375,0.79541015625,-0.525390625
1969/12/31/18:00:05.757000,110,1731183483,230138007,RL_myo,-0.62009284261545,-0.7837216724434048,0.0050046863281955,0.0352159025776687,-211.125,97.0625,-88.5,0.74169921875,0.6943359375,-0.369140625
1969/12/31/18:00:05.778000,111,1731183483,250961361,RL_myo,-0.6511609746166112,-0.7579687078230101,-0.0247183611134808,0.0293568683841587,-238.875,125.1875,-120.25,0.8076171875,0.59375,-0.177734375
1969/12/31/18:00:05.809000,112,1731183483,281733201,RL_myo,-0.6800186526940915,-0.7304921247617645,-0.0580414412773362,0.0242297078728733,-233.5,136.1875,-140.0625,0.830078125,0.55859375,0.04541015625
1969/12/31/18:00:05.817000,113,1731183483,289937406,RL_myo,-0.7046144843853055,-0.7027835242699692,-0.0958812780397847,0.020506753291768,-214.6875,151.0625,-163.3125,0.7080078125,0.5,0.1982421875
1969/12/31/18:00:05.838000,114,1731183483,310945846,RL_myo,-0.7232893844400933,-0.676966150722261,-0.1352467535160954,0.0166617164755839,-183.625,162.1875,-163.0625,0.3515625,0.4765625,0.2001953125
1969/12/31/18:00:05.860000,115,1731183483,333577165,RL_myo,-0.7347573480608771,-0.6559047445477404,-0.1725358437551374,0.012328348227286,-135.75,161.5,-144.0,-0.02490234375,0.4453125,0.234375
1969/12/31/18:00:05.878000,116,1731183483,351495672,RL_myo,-0.7416581398298236,-0.6388195975640852,-0.2043343854633187,0.0100092112353597,-98.5,135.625,-125.0625,-0.21533203125,0.43896484375,0.27880859375
1969/12/31/18:00:05.898000,117,1731183483,370848903,RL_myo,-0.7481394618324304,-0.6222288965069039,-0.2302155367949035,0.0109248624300868,-90.6875,99.625,-118.4375,-0.22119140625,0.63037109375,0.3505859375
1969/12/31/18:00:05.920000,118,1731183483,393568607,RL_myo,-0.7585820640983203,-0.6019097526862688,-0.2492597272328859,0.0112911482708334,-121.25,67.0625,-95.4375,-0.330078125,0.7197265625,0.3564453125
1969/12/31/18:00:05.937000,119,1731183483,409974832,RL_myo,-0.7685259508527357,-0.5837794409074346,-0.2617699970780959,0.0067746490267355,-118.125,54.625,-43.6875,-0.70166015625,0.7939453125,0.31396484375
1969/12/31/18:00:05.958000,120,1731183483,430962986,RL_myo,-0.7798461771534334,-0.5691082800090598,-0.2606607468009324,-0.003417701198982,-114.6875,10.875,36.0625,-0.9853515625,0.87841796875,0.408203125
1969/12/31/18:00:05.980000,121,1731183483,453621982,RL_myo,-0.8015886684003228,-0.5449509075792968,-0.2454689831206105,-0.0151358298890878,-196.375,-63.625,72.1875,-0.884765625,1.02880859375,0.359375
1969/12/31/18:00:05.999000,122,1731183483,471553203,RL_myo,-0.8318170165214904,-0.5091972535651034,-0.2175211568627626,-0.0385117424187438,-299.5,-100.8125,151.625,-1.02001953125,1.0615234375,0.14892578125
1969/12/31/18:00:06.025000,123,1731183483,498549868,RL_myo,-0.8571551127908142,-0.4803340029666554,-0.1788282882709403,-0.0508409433889738,-238.3125,-178.1875,137.0,-0.73828125,0.923828125,0.33984375
1969/12/31/18:00:06.040000,124,1731183483,513563558,RL_myo,-0.8811283476447195,-0.4497495874346428,-0.1337835657018234,-0.0586523752917209,-239.9375,-219.6875,130.0,-0.59228515625,0.8544921875,0.45751953125
1969/12/31/18:00:06.059000,125,1731183483,531728169,RL_myo,-0.8971116032733276,-0.4250279070137733,-0.0949049964684689,-0.0743981933730312,-202.1875,-169.3125,165.5625,-0.900390625,1.17236328125,0.134765625
1969/12/31/18:00:06.078000,126,1731183483,551044778,RL_myo,-0.9114159972585844,-0.401662671797947,-0.035765738591946,-0.0819072033965727,-188.75,-290.25,170.4375,-0.51025390625,0.96826171875,0.5869140625
1969/12/31/18:00:06.100000,127,1731183483,573555079,RL_myo,-0.9203196865382954,-0.381091327193124,0.0267935766556344,-0.0840427222205207,-163.75,-318.5625,151.6875,-0.220703125,0.96484375,0.52001953125
1969/12/31/18:00:06.118000,128,1731183483,591556496,RL_myo,-0.9198660392229188,-0.3781508744045386,0.069026571812707,-0.0779981952048096,-41.375,-240.8125,67.875,-0.38720703125,0.85546875,0.42919921875
1969/12/31/18:00:06.118000,1,1731183487,549190068,RL_myo,-0.8553713273066548,-0.3348246237320234,0.3152331719970654,-0.2384542116152051,21.625,-5.375,-0.3125,0.65625,0.3388671875,0.5859375
1969/12/31/18:00:06.127000,2,1731183487,558160275,RL_myo,-0.8537776749357274,-0.3390331677938356,0.3143151780626919,-0.2394288239883379,27.625,-3.0625,-3.125,0.6640625,0.3935546875,0.56005859375
1969/12/31/18:00:06.149000,3,1731183487,580700242,RL_myo,-0.8524098934442467,-0.3429536869012761,0.3129246401037271,-0.2405375476202045,27.9375,-0.1875,-4.0625,0.66455078125,0.3818359375,0.5693359375
1969/12/31/18:00:06.171000,4,1731183487,601797358,RL_myo,-0.8512464615473556,-0.3463700917244743,0.311763599740725,-0.2412688938479025,26.125,-0.375,-8.4375,0.70458984375,0.341796875,0.58056640625
1969/12/31/18:00:06.187000,5,1731183487,618213524,RL_myo,-0.849965661012345,-0.3511311537989388,0.3096887666219043,-0.241574327609282,32.5625,2.25,-13.9375,0.70361328125,0.36083984375,0.5615234375
1969/12/31/18:00:06.192000,6,1731183487,623500714,RL_myo,-0.8483038630316477,-0.3577170257736878,0.3060216971897749,-0.2424248466768619,44.8125,6.625,-15.5625,0.69970703125,0.40087890625,0.578125
1969/12/31/18:00:06.215000,7,1731183487,646035942,RL_myo,-0.8457178673213785,-0.3674725610985076,0.30045962768443,-0.2438221029045902,67.375,10.4375,-22.375,0.7275390625,0.41064453125,0.609375
1969/12/31/18:00:06.237000,8,1731183487,668568473,RL_myo,-0.8415774436764769,-0.3834673347319823,0.2910030641416667,-0.2449845426729551,103.0625,17.75,-37.1875,0.76611328125,0.47998046875,0.6884765625
1969/12/31/18:00:06.252000,9,1731183487,683451715,RL_myo,-0.8362118770384137,-0.404770248048957,0.2755025482046128,-0.2470001800141931,142.125,39.9375,-55.0625,0.830078125,0.46142578125,0.70458984375
1969/12/31/18:00:06.275000,10,1731183487,705836998,RL_myo,-0.8303498861410922,-0.4293040131654864,0.2525533134032958,-0.2498678745947542,169.625,71.125,-70.375,0.7197265625,0.6357421875,0.703125
1969/12/31/18:00:06.306000,11,1731183487,737297955,RL_myo,-0.8230141515166643,-0.4555415370352527,0.224475050002098,-0.2544416757636614,188.9375,95.5625,-72.0,0.69091796875,1.0107421875,0.66455078125
1969/12/31/18:00:06.312000,12,1731183487,743485194,RL_myo,-0.8218198309121293,-0.4745986635850514,0.1889605790199741,-0.2523136413658182,136.5,132.1875,-118.5,0.6259765625,1.50439453125,0.57177734375
1969/12/31/18:00:06.342000,13,1731183487,773484363,RL_myo,-0.8367818720790732,-0.4697208816572245,0.1448346741388505,-0.2412080203104666,-19.25,196.4375,-174.875,-0.0888671875,1.55029296875,0.51318359375
1969/12/31/18:00:06.357000,14,1731183487,788574856,RL_myo,-0.8547795154557893,-0.4608668419283588,0.1008279728334854,-0.2163040773134821,-60.375,165.75,-240.8125,-0.47705078125,1.31640625,0.22900390625
1969/12/31/18:00:06.372000,15,1731183487,803530509,RL_myo,-0.8691608476814984,-0.4544464343681227,0.0541356415907232,-0.1873691315485008,-33.8125,164.5,-270.6875,-0.31787109375,0.9892578125,0.322265625
1969/12/31/18:00:06.395000,16,1731183487,826032946,RL_myo,-0.876011148232327,-0.4546981853501592,0.0031126989869608,-0.1607617476795059,27.25,182.125,-265.875,-0.37548828125,0.87060546875,0.45654296875
1969/12/31/18:00:06.417000,17,1731183487,848480553,RL_myo,-0.8740860886206812,-0.4638356565784929,-0.0480314028588518,-0.1360991466013209,95.0,179.0,-248.1875,-0.4912109375,0.87841796875,0.404296875
1969/12/31/18:00:06.432000,18,1731183487,863604124,RL_myo,-0.8655057708657952,-0.4782528185956118,-0.0972252092933651,-0.112788566713207,138.0625,172.0625,-231.125,-0.47900390625,0.9130859375,0.44775390625
1969/12/31/18:00:06.455000,19,1731183487,886033007,RL_myo,-0.853055661670313,-0.4935723786168577,-0.1422064600194483,-0.0919764528966989,151.9375,159.875,-204.6875,-0.53369140625,0.9140625,0.55029296875
1969/12/31/18:00:06.477000,20,1731183487,908521435,RL_myo,-0.8379169671411161,-0.5099886501151697,-0.1801683215820944,-0.073117089856148,161.25,134.1875,-173.125,-0.5869140625,0.88037109375,0.5791015625
1969/12/31/18:00:06.492000,21,1731183487,923623727,RL_myo,-0.8212420215223301,-0.5274356086501172,-0.210254069868046,-0.0562711908326091,165.125,104.125,-139.9375,-0.52783203125,0.84228515625,0.4921875
1969/12/31/18:00:06.515000,22,1731183487,946074222,RL_myo,-0.8059825287961717,-0.5426924614611206,-0.2322860445705156,-0.0438206463483001,142.625,78.6875,-97.5,-0.5908203125,0.77197265625,0.439453125
1969/12/31/18:00:06.537000,23,1731183487,968467564,RL_myo,-0.7939593891782569,-0.555692231414254,-0.2440041231404928,-0.0360086124694574,114.375,42.125,-46.0625,-0.67724609375,0.75048828125,0.447265625
1969/12/31/18:00:06.552000,24,1731183487,983451032,RL_myo,-0.7843362875788921,-0.5699880623841937,-0.2428506799685948,-0.0308827454295322,106.5625,-11.0625,7.8125,-0.58740234375,0.62841796875,0.4150390625
1969/12/31/18:00:06.575000,25,1731183488,6117741,RL_myo,-0.7786478234041544,-0.5823685162974166,-0.2316779383635499,-0.0296616117082943,96.1875,-43.375,61.1875,-0.333984375,0.42236328125,0.44921875
1969/12/31/18:00:06.597000,26,1731183488,28468503,RL_myo,-0.7740843151965571,-0.5950738841887907,-0.2134331664623796,-0.0335682703901369,79.5625,-58.3125,92.4375,-0.12353515625,0.583984375,0.37109375
1969/12/31/18:00:06.612000,27,1731183488,43489345,RL_myo,-0.7642472400539989,-0.6143517583759426,-0.1930453617865196,-0.0350936082918902,115.9375,-75.8125,98.4375,0.0048828125,0.7275390625,0.291015625
1969/12/31/18:00:06.635000,28,1731183488,65949340,RL_myo,-0.7553280703166737,-0.6313116967805166,-0.1719872739295722,-0.0366800396137945,102.9375,-78.5,95.5,0.24365234375,0.6337890625,0.279296875
1969/12/31/18:00:06.657000,29,1731183488,88477812,RL_myo,-0.7492984979635451,-0.6441391502408776,-0.1470888148645551,-0.0447369714919995,72.8125,-68.125,98.8125,0.48583984375,0.6181640625,0.19921875
1969/12/31/18:00:06.672000,30,1731183488,103436824,RL_myo,-0.7412941457365932,-0.657009013572734,-0.1270075018341717,-0.0518771631710937,75.0625,-55.125,107.8125,0.5048828125,0.60009765625,0.1494140625
1969/12/31/18:00:06.695000,31,1731183488,125995670,RL_myo,-0.7325824686142247,-0.669107856653982,-0.1098599053158047,-0.0595684819934585,75.625,-40.1875,100.1875,0.44189453125,0.626953125,0.16552734375
1969/12/31/18:00:06.717000,32,1731183488,148482334,RL_myo,-0.7260986382162627,-0.6776391678671232,-0.0942335292431629,-0.0686000562625098,50.0,-27.5,72.375,0.4423828125,0.72412109375,0.05078125
1969/12/31/18:00:06.732000,33,1731183488,163533511,RL_myo,-0.7166807110265904,-0.6882405159028239,-0.0847713112165489,-0.0742130413530046,57.625,-15.8125,44.9375,0.33349609375,0.81298828125,-0.2021484375
1969/12/31/18:00:06.755000,34,1731183488,185972628,RL_myo,-0.7083841302689382,-0.6968493150177252,-0.0780583529433938,-0.0806216452214411,50.1875,-1.625,42.125,0.26416015625,0.87060546875,-0.15478515625
1969/12/31/18:00:06.777000,35,1731183488,208551123,RL_myo,-0.7044455226538484,-0.7006004292621318,-0.0729347079857346,-0.0871554502122418,23.25,5.5625,39.9375,0.16845703125,0.876953125,-0.02734375
1969/12/31/18:00:06.792000,36,1731183488,223492595,RL_myo,-0.7057193011054035,-0.6990057213145537,-0.0689667742150917,-0.0927084336572782,-26.75,7.0,33.6875,0.07666015625,0.95361328125,-0.142578125
1969/12/31/18:00:06.815000,37,1731183488,246006523,RL_myo,-0.704792731509691,-0.6996660784574903,-0.0661582370069713,-0.0967350605683114,-15.125,5.125,30.625,0.00390625,0.9150390625,-0.24951171875
1969/12/31/18:00:06.837000,38,1731183488,268480132,RL_myo,-0.7035823103137694,-0.7009579141181159,-0.0618869242416865,-0.0989946657988318,0.5,-8.0625,31.3125,-0.013671875,0.83740234375,-0.07958984375
1969/12/31/18:00:06.852000,39,1731183488,283439224,RL_myo,-0.705205808794664,-0.6997741067624074,-0.0557207186005649,-0.0994794866581828,-19.875,-22.8125,32.0,-0.041015625,0.87890625,-0.05810546875
1969/12/31/18:00:06.875000,40,1731183488,306016498,RL_myo,-0.7053293026227038,-0.7002027419737198,-0.0482751127779318,-0.0994796887838545,-18.8125,-29.5,33.4375,0.01806640625,0.998046875,-0.21044921875
1969/12/31/18:00:06.897000,41,1731183488,328455089,RL_myo,-0.7031970990343462,-0.7025257600229439,-0.0397920941303934,-0.1019214680947195,2.3125,-24.25,41.0625,0.14404296875,0.8505859375,-0.134765625
1969/12/31/18:00:06.912000,42,1731183488,343482729,RL_myo,-0.7025338236475576,-0.7031441388448884,-0.0318584533006711,-0.1049742139409086,-0.4375,-19.875,41.625,0.12451171875,0.82666015625,0.001953125
1969/12/31/18:00:06.935000,43,1731183488,366009752,RL_myo,-0.7026645343571309,-0.7030917602531181,-0.0259387151135047,-0.1060740867465207,-12.125,-18.5625,29.5625,0.08447265625,0.88818359375,-0.09765625
1969/12/31/18:00:06.953000,44,1731183488,383915454,RL_myo,-0.702100010084133,-0.7035647528033628,-0.0220932026817155,-0.1075365279701184,-3.75,-9.3125,22.125,0.11572265625,1.00830078125,-0.06787109375
1969/12/31/18:00:06.972000,45,1731183488,403485784,RL_myo,-0.6994241861298112,-0.7060766500293006,-0.02081183660299,-0.1087586299898188,18.8125,-1.25,14.875,0.087890625,1.009765625,-0.015625
1969/12/31/18:00:06.995000,46,1731183488,425878275,RL_myo,-0.6988946359950868,-0.7067069243024287,-0.0206903573139755,-0.1080903327523621,2.75,-3.25,6.1875,0.0498046875,1.34814453125,-0.0234375
1969/12/31/18:00:07.013000,47,1731183488,443913062,RL_myo,-0.7020911239201936,-0.7037999687976071,-0.0219708627096027,-0.1060704427480264,-32.125,-0.875,0.125,-0.06982421875,1.28515625,-0.11328125
1969/12/31/18:00:07.032000,48,1731183488,463461528,RL_myo,-0.7059502779199859,-0.700152294311237,-0.0197131442697463,-0.1050350504279671,-41.125,-10.3125,14.0,-0.03515625,1.1171875,-0.11328125
1969/12/31/18:00:07.055000,49,1731183488,486002344,RL_myo,-0.7087502053233887,-0.697398484132469,-0.0162341819181969,-0.1050949671546435,-24.875,-12.625,15.25,0.07763671875,0.96142578125,0.01953125
1969/12/31/18:00:07.073000,50,1731183488,503875351,RL_myo,-0.7089780745667142,-0.6973204633199647,-0.0137327881178986,-0.104430224309887,-14.75,-11.6875,12.4375,0.03515625,0.89306640625,-0.1484375
1969/12/31/18:00:07.092000,51,1731183488,523448980,RL_myo,-0.7026626812580868,-0.704188484005542,-0.0109247476717795,-0.1013133024310278,44.25,-26.5,11.9375,-0.0126953125,0.91162109375,-0.09716796875
1969/12/31/18:00:07.115000,52,1731183488,546051189,RL_myo,-0.6974309399818923,-0.7095155926568214,-0.0069578303279894,-0.100644405358374,38.4375,-21.125,15.5625,0.134765625,0.90576171875,-0.0361328125
1969/12/31/18:00:07.133000,53,1731183488,563886666,RL_myo,-0.6929135089202231,-0.713909038477922,-0.0051268153571125,-0.1008884022060361,27.375,-7.75,14.0,0.103515625,1.02880859375,-0.12451171875
1969/12/31/18:00:07.152000,54,1731183488,583474213,RL_myo,-0.6901158993175737,-0.7164827577685502,-0.0039672356465589,-0.1018664045247219,8.75,-0.25,14.25,0.087890625,1.03173828125,-0.20361328125
1969/12/31/18:00:07.175000,55,1731183488,606068430,RL_myo,-0.6879518683797025,-0.7181016397583019,-0.0026243728123072,-0.1050969763440248,2.125,8.8125,20.0625,0.14501953125,1.03125,-0.2099609375
1969/12/31/18:00:07.193000,56,1731183488,623780633,RL_myo,-0.684802921021211,-0.7208130567968362,-0.0036010135775625,-0.1070538612719433,10.6875,12.6875,11.75,0.06982421875,1.02392578125,-0.2314453125
1969/12/31/18:00:07.212000,57,1731183488,643563345,RL_myo,-0.6814953647051146,-0.7240354210546995,-0.0057371094646498,-0.1063196243342566,14.0,5.8125,1.3125,0.013671875,1.15771484375,-0.2509765625
1969/12/31/18:00:07.235000,58,1731183488,666039463,RL_myo,-0.6794213864900561,-0.7261117710269671,-0.0079953468945559,-0.1052822396420541,6.9375,5.25,-3.8125,0.05078125,1.1630859375,-0.2255859375
1969/12/31/18:00:07.253000,59,1731183488,683690416,RL_myo,-0.6787943032801295,-0.7269482958433395,-0.0109857017254471,-0.1032655962192033,-0.4375,4.3125,-13.3125,0.07177734375,1.21826171875,-0.18701171875
1969/12/31/18:00:07.272000,60,1731183488,703496336,RL_myo,-0.6786867016011442,-0.7276351489648237,-0.0158685739583001,-0.0983851585414608,2.625,-0.625,-29.3125,0.0078125,1.2294921875,-0.12744140625
1969/12/31/18:00:07.295000,61,1731183488,726076220,RL_myo,-0.6781672299615151,-0.7288222696364663,-0.0224591019281711,-0.0916673127611767,4.0625,-1.875,-44.6875,0.00341796875,1.2060546875,-0.17626953125
1969/12/31/18:00:07.313000,62,1731183488,743842040,RL_myo,-0.6771636317041176,-0.7303846039299843,-0.0297231805894461,-0.0842868837659654,13.125,-2.6875,-50.875,-0.0078125,1.17236328125,-0.10693359375
1969/12/31/18:00:07.341000,63,1731183488,772529467,RL_myo,-0.6753822224810624,-0.732569385183462,-0.0380230548170704,-0.0758630130619881,19.75,-3.0625,-58.625,-0.03955078125,1.09033203125,-0.1083984375
1969/12/31/18:00:07.355000,64,1731183488,786029946,RL_myo,-0.6714185039227236,-0.7366622436457844,-0.0482156729478185,-0.0648165122412446,35.25,-6.5625,-70.9375,-0.138671875,1.103515625,-0.15576171875
1969/12/31/18:00:07.373000,65,1731183488,803868832,RL_myo,-0.66655246890438,-0.7413801702940669,-0.0577381774181433,-0.0522451161415758,41.625,-15.625,-73.1875,-0.177734375,1.09130859375,-0.17236328125
1969/12/31/18:00:07.394000,66,1731183488,825117849,RL_myo,-0.6621291275704443,-0.7456200158105003,-0.0639608559032008,-0.0393041900779211,40.875,-30.0625,-64.3125,-0.15380859375,1.05029296875,-0.13037109375
1969/12/31/18:00:07.415000,67,1731183488,845893262,RL_myo,-0.6586570886247435,-0.7489233816265963,-0.067745493733642,-0.0263658137774174,30.6875,-39.625,-55.6875,-0.158203125,1.02294921875,-0.16552734375
1969/12/31/18:00:07.433000,68,1731183488,863894033,RL_myo,-0.6557483015183382,-0.7516325701040892,-0.0698227901095475,-0.0129391883769441,29.75,-48.0625,-50.875,-0.17529296875,0.966796875,-0.11669921875
1969/12/31/18:00:07.456000,69,1731183488,886510080,RL_myo,-0.6540199471532281,-0.753197104126352,-0.0703700073784688,0.0003051604829942,27.625,-52.875,-45.9375,-0.1611328125,0.88671875,0.00341796875
1969/12/31/18:00:07.475000,70,1731183488,906035870,RL_myo,-0.6526652471892167,-0.7543428516232203,-0.069514280582431,0.0127554737855382,24.4375,-54.875,-38.5,-0.142578125,0.7666015625,0.017578125
1969/12/31/18:00:07.493000,71,1731183488,923959489,RL_myo,-0.6492667147727625,-0.7572337027811303,-0.066891926996705,0.0239858825818476,35.0625,-55.8125,-27.5,-0.1240234375,0.70654296875,-0.041015625
1969/12/31/18:00:07.514000,72,1731183488,944996224,RL_myo,-0.644007552787322,-0.7616768630388343,-0.062923785720596,0.0338116171573328,52.5625,-53.5,-17.6875,-0.10107421875,0.6796875,0.01513671875
1969/12/31/18:00:07.535000,73,1731183488,966006959,RL_myo,-0.6378340776006705,-0.7668534288634986,-0.0577962751399708,0.0419892685282998,57.8125,-50.3125,-6.125,-0.12060546875,0.77685546875,-0.03125
1969/12/31/18:00:07.554000,74,1731183488,985305538,RL_myo,-0.6315166499081994,-0.7719554062084573,-0.0523669938746723,0.0502918449332518,51.625,-52.1875,-3.6875,-0.16259765625,0.81640625,-0.150390625
1969/12/31/18:00:07.574000,75,1731183489,5059759,RL_myo,-0.6265395091378405,-0.7758202065225238,-0.0465663009421558,0.0581621032737543,43.5625,-52.75,-2.8125,-0.13037109375,0.830078125,-0.1259765625
1969/12/31/18:00:07.595000,76,1731183489,26029635,RL_myo,-0.6228948458956143,-0.7787101057007783,-0.0393047502211224,0.0637786707780635,33.4375,-49.6875,6.9375,-0.0478515625,0.7705078125,-0.12646484375
1969/12/31/18:00:07.613000,77,1731183489,43881256,RL_myo,-0.620459668981341,-0.7807318596900761,-0.0313098377127117,0.0671361042572767,21.5625,-43.6875,16.3125,-0.02099609375,0.81005859375,-0.19189453125
1969/12/31/18:00:07.634000,78,1731183489,65067526,RL_myo,-0.6178497422528988,-0.7827642936277217,-0.0251461122007502,0.0700673223457797,21.75,-34.8125,12.75,-0.0693359375,0.8359375,-0.19677734375
1969/12/31/18:00:07.658000,79,1731183489,89006309,RL_myo,-0.6152702220763783,-0.7846358471395614,-0.0199576790614994,0.0734222871895529,24.5625,-32.0625,9.375,-0.10302734375,0.85302734375,-0.14990234375
1969/12/31/18:00:07.673000,80,1731183489,103989757,RL_myo,-0.6141128331005312,-0.7854931586169585,-0.0139154965162911,0.0753145732504527,16.0625,-30.375,13.25,-0.02587890625,0.91015625,-0.14697265625
1969/12/31/18:00:07.695000,81,1731183489,126489169,RL_myo,-0.6135151264317902,-0.7859975923386981,-0.0083616765142414,0.0757433617092968,9.3125,-22.875,15.0,-0.00390625,0.90673828125,-0.1865234375
1969/12/31/18:00:07.715000,82,1731183489,146063947,RL_myo,-0.6126898512708614,-0.7866280997141282,-0.0040890746125259,0.076227674493207,9.375,-16.9375,16.0625,-0.09521484375,0.892578125,-0.197265625
1969/12/31/18:00:07.733000,83,1731183489,164098729,RL_myo,-0.6122698514254804,-0.7868814986472008,0.0011596019913361,0.0770830165819758,10.5,-21.875,19.0,-0.0966796875,0.92919921875,-0.14794921875
1969/12/31/18:00:07.755000,84,1731183489,186410749,RL_myo,-0.613355049730897,-0.786009918953654,0.0072015816784324,0.0770203057473026,-0.4375,-22.0,22.6875,-0.0419921875,1.01708984375,-0.177734375
1969/12/31/18:00:07.775000,85,1731183489,206037851,RL_myo,-0.6165547901996075,-0.7834798893082916,0.011962456828264,0.0766573764096918,-16.0625,-16.5,20.125,-0.04736328125,0.990234375,-0.16015625
1969/12/31/18:00:07.793000,86,1731183489,223993759,RL_myo,-0.6186313240213411,-0.7817727534914521,0.0161127337748257,0.0765965185129028,-12.3125,-14.875,20.0625,-0.09375,0.857421875,-0.17919921875
1969/12/31/18:00:07.815000,87,1731183489,246487745,RL_myo,-0.6195531657481619,-0.781048356031842,0.0208735279958498,0.075376628873902,-1.5625,-11.9375,23.0,-0.03759765625,0.904296875,-0.16259765625
1969/12/31/18:00:07.835000,88,1731183489,266034018,RL_myo,-0.619236407174507,-0.781338900517252,0.0249012866279517,0.0737273388396219,6.9375,-7.9375,19.0,-0.01416015625,0.93994140625,-0.173828125
1969/12/31/18:00:07.853000,89,1731183489,284046611,RL_myo,-0.6194353013979812,-0.781175723972092,0.0288691395764356,0.0723254342454042,2.0,-8.5,19.3125,-0.0283203125,1.00048828125,-0.20751953125
1969/12/31/18:00:07.880000,90,1731183489,311152723,RL_myo,-0.6204680993120465,-0.7803152321173041,0.0324699025018698,0.071226271089628,-5.875,-8.4375,18.75,-0.05029296875,1.052734375,-0.2373046875
1969/12/31/18:00:07.898000,91,1731183489,329035547,RL_myo,-0.6220043951343106,-0.7790466195166658,0.035278043409639,0.0703729827877401,-12.3125,-6.4375,16.125,-0.06298828125,0.9990234375,-0.251953125
1969/12/31/18:00:07.913000,92,1731183489,343999279,RL_myo,-0.6242286399655914,-0.7772952638445221,0.0379004678743285,0.0686602678882763,-14.375,-2.875,15.125,-0.005859375,1.00048828125,-0.2119140625
1969/12/31/18:00:07.935000,93,1731183489,366026870,RL_myo,-0.6263963285779851,-0.7756255036119102,0.0393672056837962,0.0669547668761619,-13.875,1.6875,11.5625,-0.02197265625,1.0029296875,-0.1982421875
1969/12/31/18:00:07.955000,94,1731183489,386033190,RL_myo,-0.6274647213235662,-0.7748557632452093,0.0399756242064911,0.0654867859138397,-7.0625,4.0,7.8125,-0.0419921875,1.0283203125,-0.21826171875
1969/12/31/18:00:07.973000,95,1731183489,404047136,RL_myo,-0.6279000259482695,-0.774621610549712,0.039854074353054,0.0641449190582845,-0.0625,6.5,4.4375,-0.0537109375,1.04150390625,-0.1796875
1969/12/31/18:00:07.995000,96,1731183489,426355967,RL_myo,-0.6289921075359143,-0.7738812268150004,0.039731599263136,0.0624353702706423,-2.9375,8.0625,5.25,-0.04052734375,1.0654296875,-0.15625
1969/12/31/18:00:08.015000,97,1731183489,445943171,RL_myo,-0.63033630164254,-0.7729065573200161,0.0394875665339585,0.0610928193206993,-6.1875,7.125,5.8125,-0.0673828125,0.994140625,-0.15625
1969/12/31/18:00:08.032000,98,1731183489,463135039,RL_myo,-0.6303266835817365,-0.7729557946904234,0.0392428405831774,0.0607257019910755,0.8125,3.5625,5.875,-0.12158203125,0.94189453125,-0.181640625
1969/12/31/18:00:08.062000,99,1731183489,493133353,RL_myo,-0.63026743338132,-0.7730190095098091,0.0399753237982729,0.0600545322404588,1.125,0.6875,6.625,-0.0595703125,0.947265625,-0.18798828125
1969/12/31/18:00:08.076000,100,1731183489,506720271,RL_myo,-0.6300931931003271,-0.7732129662328597,0.0409523956383494,0.0587126745217468,3.5,2.3125,8.25,-0.02294921875,0.93017578125,-0.16943359375
1969/12/31/18:00:08.092000,101,1731183489,523106553,RL_myo,-0.6289380712558305,-0.7742560283310495,0.0410747522518363,0.0572483174030052,11.0625,6.5625,7.3125,-0.06494140625,0.94189453125,-0.1640625
1969/12/31/18:00:08.114000,102,1731183489,545660252,RL_myo,-0.625220749622089,-0.7774367345457017,0.0408309919462297,0.0549906184507518,32.125,10.3125,1.4375,0.00927734375,1.134765625,-0.19384765625
1969/12/31/18:00:08.136000,103,1731183489,566705959,RL_myo,-0.62290117212889,-0.7795114413511838,0.0364976387353592,0.0549905894658171,13.3125,16.0,-18.5,-0.068359375,0.9482421875,-0.2607421875
1969/12/31/18:00:08.152000,104,1731183489,583256166,RL_myo,-0.6189866717595851,-0.7826745295449535,0.036680239570845,0.0541353951736099,24.4375,5.0625,10.0625,-0.16064453125,1.099609375,-0.3232421875
1969/12/31/18:00:08.174000,105,1731183489,605730649,RL_myo,-0.6166651180675314,-0.7845025165914539,0.0379617679570471,0.0532807450586851,14.3125,-1.9375,3.0,0.02978515625,1.017578125,-0.29052734375
1969/12/31/18:00:08.196000,106,1731183489,626772921,RL_myo,-0.6155153672656072,-0.7854915990786677,0.0373520480680765,0.0524271393635256,6.625,4.6875,-6.1875,0.0458984375,0.95751953125,-0.2578125
1969/12/31/18:00:08.212000,107,1731183489,643707612,RL_myo,-0.6142545128143265,-0.7866168681588872,0.0360105487440831,0.0512692558390336,6.75,9.0,-5.5625,0.01025390625,0.970703125,-0.283203125
1969/12/31/18:00:08.234000,108,1731183489,665637074,RL_myo,-0.6133284198438917,-0.7874577841403017,0.0340568472756385,0.0507801020310596,2.5,7.8125,-11.8125,0.021484375,1.013671875,-0.3154296875
1969/12/31/18:00:08.255000,109,1731183489,686716321,RL_myo,-0.6156478982860422,-0.7856880533990503,0.0325920469599233,0.0510852870888685,-24.0,1.375,-15.0625,0.08056640625,0.98681640625,-0.33740234375
1969/12/31/18:00:08.272000,110,1731183489,703287106,RL_myo,-0.6244847134722236,-0.7787749163316626,0.0308214210617154,0.0507790541056381,-85.0625,2.0,-21.625,0.228515625,1.005859375,-0.515625
1969/12/31/18:00:08.294000,111,1731183489,725726952,RL_myo,-0.6440104686108077,-0.7627788889971451,0.0243517984245367,0.0531589384154675,-153.625,9.8125,-35.8125,0.34521484375,1.0234375,-0.57080078125
1969/12/31/18:00:08.315000,112,1731183489,746730591,RL_myo,-0.6700638122000884,-0.7400668354803053,0.0140372234999563,0.0558437369672174,-204.8125,21.8125,-52.5625,0.451171875,0.9189453125,-0.3017578125
1969/12/31/18:00:08.332000,113,1731183489,763138441,RL_myo,-0.7009645332029383,-0.7109129196994188,-0.0029906192535432,0.0569438319093026,-251.25,53.1875,-74.3125,0.52392578125,0.77392578125,-0.13671875
1969/12/31/18:00:08.355000,114,1731183489,785732994,RL_myo,-0.7311838659580185,-0.6793662447394577,-0.0261834623118522,0.0560899810363454,-259.5,86.0625,-92.5,0.54345703125,0.65576171875,-0.04345703125
1969/12/31/18:00:08.376000,115,1731183489,807083580,RL_myo,-0.7562078398637766,-0.6499481264495042,-0.0535265759128758,0.0534045084649559,-230.4375,112.9375,-102.1875,0.548828125,0.4892578125,0.0546875
1969/12/31/18:00:08.392000,116,1731183489,823122548,RL_myo,-0.7737811566798992,-0.6259583169986627,-0.0826391927862899,0.0510849367519384,-177.75,124.1875,-110.0,0.49267578125,0.39404296875,0.19482421875
1969/12/31/18:00:08.415000,117,1731183489,845708494,RL_myo,-0.7846865867104004,-0.6073890418403909,-0.1129089356315035,0.0509616006769218,-128.1875,126.4375,-121.3125,0.34912109375,0.421875,0.248046875
1969/12/31/18:00:08.443000,118,1731183489,874042220,RL_myo,-0.7909261499441909,-0.5923859257163605,-0.1440377894797662,0.052610412937101,-94.4375,127.375,-127.5,0.078125,0.43603515625,0.29931640625
1969/12/31/18:00:08.451000,119,1731183489,882502523,RL_myo,-0.793294708456504,-0.5812083019411669,-0.1724765999459978,0.0559663984962774,-62.25,113.125,-120.3125,-0.15185546875,0.44384765625,0.2685546875
1969/12/31/18:00:08.474000,120,1731183489,905551484,RL_myo,-0.7945373248441127,-0.5717641465002034,-0.1953079919727424,0.0604234100165671,-49.0625,85.125,-105.9375,-0.21240234375,0.544921875,0.23876953125
1969/12/31/18:00:08.495000,121,1731183489,926658037,RL_myo,-0.796272298580738,-0.5627064147247953,-0.2124491355376369,0.0646318973094965,-43.75,61.625,-86.4375,-0.27685546875,0.6337890625,0.27490234375
1969/12/31/18:00:08.512000,122,1731183489,943209213,RL_myo,-0.7965954261416744,-0.5571651582322514,-0.2249655792796668,0.0662812314426799,-21.4375,50.125,-45.625,-0.48291015625,0.6630859375,0.337890625
1969/12/31/18:00:08.534000,123,1731183489,965508750,RL_myo,-0.7964115842008878,-0.5557608924617429,-0.2300310568513408,0.062802323560634,-3.5625,33.5,12.6875,-0.607421875,0.712890625,0.37255859375
1969/12/31/18:00:08.557000,124,1731183489,988112114,RL_myo,-0.8006524612676263,-0.5529738755210165,-0.2242412824132687,0.0537715214496705,-27.6875,-2.875,66.4375,-0.5849609375,0.9013671875,0.439453125
1969/12/31/18:00:08.571000,125,1731183490,2373014,RL_myo,-0.8094677142359168,-0.5461755692299796,-0.2112928618476018,0.0425393196729574,-69.75,-42.0,99.8125,-0.671875,1.015625,0.369140625
1969/12/31/18:00:08.595000,126,1731183490,25671246,RL_myo,-0.8243783331075349,-0.533493078381059,-0.1869453493972295,0.0289298385942823,-116.375,-94.625,134.5625,-0.85546875,1.00927734375,0.3974609375
1969/12/31/18:00:08.623000,127,1731183490,54185686,RL_myo,-0.8426500068776246,-0.5160750675858038,-0.1525155621921622,0.0186143443251738,-142.875,-156.375,145.4375,-0.73828125,0.9111328125,0.50830078125
1969/12/31/18:00:08.631000,128,1731183490,62392117,RL_myo,-0.8607473642943371,-0.4961976935200284,-0.113155045976154,0.0098873341144212,-150.875,-184.9375,148.8125,-0.57080078125,0.78271484375,0.60693359375
1969/12/31/18:00:08.631000,1,1731183496,963182174,RL_myo,-0.8651419509307381,-0.3104135423233675,0.3275637989873207,-0.2188030965845993,5.125,-3.9375,-0.5,0.6318359375,0.36767578125,0.59375
1969/12/31/18:00:08.654000,2,1731183496,985667073,RL_myo,-0.8647025465243443,-0.3113856855143425,0.3278033157384425,-0.2188000161836373,6.0,-5.25,-0.5,0.64599609375,0.37060546875,0.58349609375
1969/12/31/18:00:08.668000,3,1731183497,111604,RL_myo,-0.8639224087846686,-0.3133435285553154,0.3276252554119464,-0.2193526765928717,13.6875,-4.25,-0.4375,0.6494140625,0.365234375,0.5869140625
1969/12/31/18:00:08.691000,4,1731183497,23215379,RL_myo,-0.8627632843531143,-0.3165174301538802,0.3271371819561893,-0.2200852011444065,20.6875,-4.5625,-1.25,0.64892578125,0.37890625,0.5810546875
1969/12/31/18:00:08.713000,5,1731183497,45545340,RL_myo,-0.8609740332794993,-0.3213318412998202,0.3263364397778041,-0.221300903428898,30.0,-5.375,-0.875,0.6611328125,0.4140625,0.58740234375
1969/12/31/18:00:08.735000,6,1731183497,66862351,RL_myo,-0.8583147597469373,-0.3283604783786192,0.3248815662470986,-0.2234438125174953,47.3125,-5.625,-2.5,0.69970703125,0.4052734375,0.625
1969/12/31/18:00:08.751000,7,1731183497,83240422,RL_myo,-0.8547170647234825,-0.3394698881742366,0.321281821529878,-0.2258249885373383,77.6875,-4.75,-14.875,0.7646484375,0.396484375,0.73486328125
1969/12/31/18:00:08.774000,8,1731183497,105772971,RL_myo,-0.8486576951356006,-0.3611296355352282,0.3126697858453565,-0.2271631744908094,134.9375,2.9375,-44.8125,0.89111328125,0.3994140625,0.9111328125
1969/12/31/18:00:08.795000,9,1731183497,126786680,RL_myo,-0.8394475921002226,-0.3954937034178742,0.2943010243643502,-0.2286905720226504,216.625,29.5,-83.5,0.9365234375,0.48095703125,0.87353515625
1969/12/31/18:00:08.811000,10,1731183497,143182276,RL_myo,-0.828462205209833,-0.4365081546825347,0.2668363607762922,-0.2278362613856127,255.125,57.75,-118.8125,0.76416015625,0.94189453125,0.57861328125
1969/12/31/18:00:08.833000,11,1731183497,165570367,RL_myo,-0.8218915652149646,-0.4694169039112054,0.232602759173788,-0.2236917114594419,204.875,99.3125,-138.8125,0.572265625,1.45263671875,0.40673828125
1969/12/31/18:00:08.855000,12,1731183497,186727305,RL_myo,-0.8251817161267164,-0.4849773606762492,0.1972013405921169,-0.2120936733387825,86.125,119.0625,-163.1875,0.23876953125,1.57666015625,0.3095703125
1969/12/31/18:00:08.871000,13,1731183497,202991772,RL_myo,-0.8374076945741775,-0.4837324821219249,0.1628309692532545,-0.1955436377389159,-24.8125,130.3125,-175.875,0.02685546875,1.44140625,0.294921875
1969/12/31/18:00:08.901000,14,1731183497,233220078,RL_myo,-0.8531180053575199,-0.472577816245763,0.1286573726780406,-0.1797419177119685,-80.1875,146.5,-171.125,0.08349609375,1.13623046875,0.28662109375
1969/12/31/18:00:08.915000,15,1731183497,246750385,RL_myo,-0.866574449153656,-0.460720509659902,0.0928276454090225,-0.1678343358808756,-69.0625,165.25,-158.8125,0.19921875,0.80126953125,0.36474609375
1969/12/31/18:00:08.931000,16,1731183497,263256872,RL_myo,-0.872569898133206,-0.4588361540298973,0.0519379578450974,-0.1593537108502343,10.8125,184.9375,-154.625,0.12744140625,0.50146484375,0.46630859375
1969/12/31/18:00:08.954000,17,1731183497,285788012,RL_myo,-0.8700760338673578,-0.4692160878487827,0.0048215492898092,-0.1509328024518782,101.8125,201.375,-164.8125,-0.0830078125,0.4814453125,0.5078125
1969/12/31/18:00:08.975000,18,1731183497,306824133,RL_myo,-0.8603129986140955,-0.4877100717881127,-0.0458963801757803,-0.1410459236518994,163.125,206.1875,-171.875,-0.37548828125,0.673828125,0.47021484375
1969/12/31/18:00:08.991000,19,1731183497,323262758,RL_myo,-0.8468378489901968,-0.5076144425262318,-0.0936251719171864,-0.1281700528201378,177.75,182.625,-173.5625,-0.54541015625,0.8994140625,0.44189453125
1969/12/31/18:00:09.013000,20,1731183497,345725284,RL_myo,-0.8341735543995235,-0.5217551738777821,-0.1390289257332539,-0.1122362574290842,147.3125,166.9375,-185.625,-0.57080078125,0.8876953125,0.40966796875
1969/12/31/18:00:09.042000,21,1731183497,374337211,RL_myo,-0.822584834482416,-0.529815918396042,-0.1823626269055838,-0.0969182903367025,115.0625,163.5,-183.375,-0.53662109375,0.81201171875,0.43212890625
1969/12/31/18:00:09.051000,22,1731183497,383241309,RL_myo,-0.8103193705679854,-0.535126929362062,-0.2228881781512602,-0.0856886643275929,101.125,165.625,-157.0,-0.6630859375,0.72021484375,0.54736328125
1969/12/31/18:00:09.074000,23,1731183497,405803977,RL_myo,-0.7973910310167364,-0.5402606510953042,-0.257130379921432,-0.0785489672344844,94.75,150.1875,-118.4375,-0.6796875,0.60009765625,0.51611328125
1969/12/31/18:00:09.095000,24,1731183497,426726403,RL_myo,-0.7839529122659016,-0.5462952524478073,-0.2853844934025189,-0.0743977111757208,92.5,133.0625,-84.25,-0.6640625,0.5107421875,0.400390625
1969/12/31/18:00:09.111000,25,1731183497,443145801,RL_myo,-0.7702347666045812,-0.554910816003871,-0.3058967234724375,-0.072384978858402,96.75,104.5,-46.75,-0.65087890625,0.4912109375,0.30859375
1969/12/31/18:00:09.134000,26,1731183497,465759412,RL_myo,-0.7589862463859347,-0.5641740802180428,-0.3176073034892573,-0.0690875225883626,98.25,57.375,-8.4375,-0.58056640625,0.49462890625,0.2587890625
1969/12/31/18:00:09.155000,27,1731183497,486675574,RL_myo,-0.7505055821807505,-0.5757721120836952,-0.3176084451222757,-0.0659751593345849,95.3125,3.0625,29.6875,-0.5185546875,0.49951171875,0.263671875
1969/12/31/18:00:09.171000,28,1731183497,503353282,RL_myo,-0.7464205576235904,-0.5879206240055639,-0.3051596719638554,-0.0639004353092313,81.3125,-52.3125,66.9375,-0.4384765625,0.64208984375,0.34228515625
1969/12/31/18:00:09.194000,29,1731183497,525770816,RL_myo,-0.7380030672541936,-0.6070276634891011,-0.2880726494740154,-0.0623140201510529,107.375,-70.1875,85.875,-0.22314453125,0.857421875,0.13525390625
1969/12/31/18:00:09.214000,30,1731183497,546685857,RL_myo,-0.7303885422076526,-0.6238849902604349,-0.2715993158539361,-0.0594466817172435,97.0,-71.875,61.3125,-0.08154296875,0.86669921875,0.07080078125
1969/12/31/18:00:09.231000,31,1731183497,563249788,RL_myo,-0.7256831411942525,-0.6375513955353375,-0.2518224256154319,-0.0591410398500614,63.9375,-80.875,70.8125,0.07275390625,0.81103515625,-0.0068359375
1969/12/31/18:00:09.236000,32,1731183497,568613910,RL_myo,-0.7231684384808794,-0.6489534987228619,-0.2280766693056837,-0.062191631261036,42.1875,-88.0,109.875,0.2158203125,0.783203125,-0.10009765625
1969/12/31/18:00:09.259000,33,1731183497,591023803,RL_myo,-0.7225926587762501,-0.6577790267137182,-0.2005438747245572,-0.0704894021019061,15.625,-85.875,139.5,0.37939453125,0.771484375,-0.09326171875
1969/12/31/18:00:09.281000,34,1731183497,613523599,RL_myo,-0.7263402327822036,-0.659876531118493,-0.1747342312793419,-0.0803789670258097,-26.875,-74.0,129.4375,0.44677734375,0.806640625,0.05810546875
1969/12/31/18:00:09.298000,35,1731183497,630165941,RL_myo,-0.730557082194734,-0.6597595704699311,-0.1515432944936946,-0.0896565040721858,-42.875,-64.4375,94.75,0.3408203125,0.80224609375,-0.02587890625
1969/12/31/18:00:09.319000,36,1731183497,651095284,RL_myo,-0.7292775803970217,-0.6644610442532743,-0.1334170885218754,-0.0940511131803339,-3.625,-60.0,68.75,0.2763671875,0.720703125,-0.1591796875
1969/12/31/18:00:09.341000,37,1731183497,673608144,RL_myo,-0.7232788868042641,-0.6735996180624979,-0.116447229434017,-0.0978327614165248,38.75,-55.5625,68.5625,0.28466796875,0.75927734375,-0.10107421875
1969/12/31/18:00:09.356000,38,1731183497,688568870,RL_myo,-0.719737329021264,-0.6792738465196869,-0.1011281908071088,-0.1016774688501166,20.8125,-48.625,65.375,0.21337890625,0.93408203125,-0.021484375
1969/12/31/18:00:09.379000,39,1731183497,710892027,RL_myo,-0.7174678630744211,-0.6828028625447962,-0.0895919379885377,-0.1048494206160135,2.5625,-35.9375,55.1875,0.1015625,1.009765625,-0.12353515625
1969/12/31/18:00:09.402000,40,1731183497,733592258,RL_myo,-0.71492942830719,-0.686122300924486,-0.0797688887482924,-0.1083929199823774,3.0,-26.75,53.8125,0.06640625,0.93896484375,-0.14208984375
1969/12/31/18:00:09.424000,41,1731183497,756071394,RL_myo,-0.7134863527056472,-0.6882183159203489,-0.0701889910702732,-0.1112037754174242,0.0625,-28.4375,51.5625,0.03759765625,0.92822265625,-0.05712890625
1969/12/31/18:00:09.439000,42,1731183497,771079406,RL_myo,-0.7129857937232483,-0.6894271123007887,-0.0608497548657831,-0.1124225160108049,-8.0,-33.6875,46.6875,0.00927734375,0.99072265625,-0.0771484375
1969/12/31/18:00:09.461000,43,1731183497,793463412,RL_myo,-0.7121251663377436,-0.6908248849654542,-0.0520605730961686,-0.1137032211936249,-4.4375,-31.0,43.25,0.0439453125,0.95361328125,-0.06640625
1969/12/31/18:00:09.476000,44,1731183497,808601849,RL_myo,-0.7110811512753719,-0.6918561437522629,-0.0446752555775102,-0.1170589346962632,1.875,-16.9375,37.125,0.19384765625,0.978515625,0.02880859375
1969/12/31/18:00:09.499000,45,1731183497,831125180,RL_myo,-0.7085375519453636,-0.6943777869310365,-0.0436999644407684,-0.1179166638262074,16.9375,-1.1875,4.1875,0.2236328125,1.36328125,0.00634765625
1969/12/31/18:00:09.521000,46,1731183497,853504057,RL_myo,-0.7083976532614149,-0.6944213404676816,-0.0491917384792539,-0.1163268654360521,6.5625,15.5,-23.625,0.04931640625,1.26806640625,0.064453125
1969/12/31/18:00:09.536000,47,1731183497,868575935,RL_myo,-0.7093761235063766,-0.6932636485338494,-0.0527317362737253,-0.1157168657117861,-17.8125,13.0,3.8125,-0.20556640625,1.146484375,-0.12939453125
1969/12/31/18:00:09.559000,48,1731183497,891081573,RL_myo,-0.7103594057185179,-0.6927209601258851,-0.0508402255317059,-0.1137649224382951,-16.4375,-15.125,14.8125,-0.14306640625,1.03173828125,-0.09912109375
1969/12/31/18:00:09.582000,49,1731183497,913615282,RL_myo,-0.7116591145979133,-0.6922502296543338,-0.0462639458718025,-0.1104109209526265,-13.125,-32.125,8.1875,0.01904296875,0.95263671875,-0.02197265625
1969/12/31/18:00:09.596000,50,1731183497,928470302,RL_myo,-0.7127351484317938,-0.6918621033244403,-0.0401592505281829,-0.1082712924574415,-17.3125,-32.5625,16.9375,0.056640625,0.96826171875,-0.07958984375
1969/12/31/18:00:09.619000,51,1731183497,950926807,RL_myo,-0.7113939417479577,-0.6935114413248149,-0.0344222875039334,-0.1085156510319036,5.5,-22.75,22.6875,0.119140625,0.85498046875,-0.00732421875
1969/12/31/18:00:09.641000,52,1731183497,973526502,RL_myo,-0.7091757327174467,-0.6956269364469413,-0.0302711844602283,-0.1107095334896255,20.6875,-9.8125,22.625,0.15478515625,0.8193359375,0.1142578125
1969/12/31/18:00:09.658000,53,1731183497,990024769,RL_myo,-0.702793180232421,-0.7021218189660244,-0.0296009285638492,-0.1105915104282368,50.3125,-6.125,12.0625,0.0380859375,0.9111328125,-0.00439453125
1969/12/31/18:00:09.679000,54,1731183498,11059855,RL_myo,-0.694166822176183,-0.7110113837130765,-0.030210354930298,-0.1080859365283998,63.0625,-11.0625,5.125,-0.03955078125,1.01611328125,-0.1318359375
1969/12/31/18:00:09.701000,55,1731183498,33546367,RL_myo,-0.6857496589074258,-0.7196221278192825,-0.0288678879194742,-0.1051572323155477,56.8125,-19.75,10.8125,-0.029296875,1.04296875,-0.2021484375
1969/12/31/18:00:09.716000,56,1731183498,48627430,RL_myo,-0.6805524521444446,-0.7249827440609682,-0.0252056463757201,-0.103019687850401,29.5,-23.9375,16.8125,0.04150390625,1.0947265625,-0.212890625
1969/12/31/18:00:09.739000,57,1731183498,70988501,RL_myo,-0.6794181849517663,-0.7262914481607995,-0.0200798223903279,-0.102413197480153,0.1875,-22.3125,21.125,0.11279296875,1.10986328125,-0.1572265625
1969/12/31/18:00:09.764000,58,1731183498,96540639,RL_myo,-0.68070446018401,-0.7250756735394995,-0.0163569259687361,-0.1031462868924035,-15.5625,-10.625,16.3125,0.150390625,1.04296875,-0.1025390625
1969/12/31/18:00:09.776000,59,1731183498,108390445,RL_myo,-0.6814420915490756,-0.7241046998780325,-0.0140988018941188,-0.1054053284465072,-11.125,1.4375,18.6875,0.10498046875,0.888671875,-0.0810546875
1969/12/31/18:00:09.799000,60,1731183498,130981372,RL_myo,-0.6788972314660461,-0.7263175073424502,-0.0119008414361631,-0.1068634531011368,13.0,-2.4375,22.4375,0.03515625,0.84716796875,-0.11572265625
1969/12/31/18:00:09.821000,61,1731183498,153598191,RL_myo,-0.6756402209827217,-0.729410684820642,-0.0093991503190008,-0.1066864594650223,23.0625,-11.8125,15.125,0.08935546875,0.962890625,-0.07421875
1969/12/31/18:00:09.836000,62,1731183498,168531579,RL_myo,-0.6729257738514655,-0.7318815418126949,-0.0078119444089413,-0.1070480507287747,19.0,-6.0625,10.1875,0.14697265625,1.04150390625,-0.08984375
1969/12/31/18:00:09.866000,63,1731183498,198509291,RL_myo,-0.670541828135889,-0.7337694001709105,-0.0069574741428498,-0.1091224891878556,14.9375,4.75,14.5625,0.13134765625,0.9775390625,-0.10107421875
1969/12/31/18:00:09.881000,64,1731183498,213611918,RL_myo,-0.6689345559746184,-0.7349735331246674,-0.0064696225304114,-0.1108990956392227,4.875,5.9375,13.75,0.09619140625,0.9755859375,-0.16748046875
1969/12/31/18:00:09.904000,65,1731183498,236084677,RL_myo,-0.6682412172086849,-0.735620731666479,-0.0067135385782222,-0.110773386540667,-3.5,2.0625,5.3125,0.07080078125,1.01806640625,-0.2177734375
1969/12/31/18:00:09.919000,66,1731183498,251099460,RL_myo,-0.6677082648228527,-0.7361880338476462,-0.0075071404545896,-0.1101657603295474,-6.1875,2.125,-1.5,0.09130859375,0.97607421875,-0.2431640625
1969/12/31/18:00:09.942000,67,1731183498,273638158,RL_myo,-0.6678054772800932,-0.7361606348887301,-0.0086664574825236,-0.1096734091274289,-9.6875,4.0625,-5.375,0.12255859375,0.9443359375,-0.22265625
1969/12/31/18:00:09.958000,68,1731183498,290019116,RL_myo,-0.6686908763717244,-0.7356454119120477,-0.0112302958426795,-0.1074812553204277,-17.1875,3.1875,-15.125,0.08349609375,1.05517578125,-0.27685546875
1969/12/31/18:00:09.980000,69,1731183498,312487686,RL_myo,-0.670803372678805,-0.7342767151941318,-0.0144645982462812,-0.1032052136475169,-24.3125,-2.3125,-22.4375,0.03076171875,1.171875,-0.27001953125
1969/12/31/18:00:10.010000,70,1731183498,341716043,RL_myo,-0.6737973545001248,-0.7320222345900813,-0.0181266136129109,-0.0990555349958064,-27.6875,-0.75,-24.5625,0.0234375,1.197265625,-0.21435546875
1969/12/31/18:00:10.018000,71,1731183498,350127145,RL_myo,-0.6773901192912058,-0.7292059775917945,-0.0225817050308808,-0.094293876412732,-27.5,-0.25,-29.875,-0.01806640625,1.1259765625,-0.1416015625
1969/12/31/18:00:10.039000,72,1731183498,371190154,RL_myo,-0.680278751295171,-0.7271524352171782,-0.0278922832712985,-0.087705057025943,-20.5,-5.4375,-39.5625,-0.03466796875,1.18408203125,-0.12744140625
1969/12/31/18:00:10.061000,73,1731183498,393601579,RL_myo,-0.6820947890814649,-0.726159967832075,-0.0342390100818451,-0.079158638281913,-7.8125,-10.125,-51.75,-0.05078125,1.185546875,-0.08251953125
1969/12/31/18:00:10.078000,74,1731183498,410034597,RL_myo,-0.6822679981776755,-0.726576663235104,-0.0407688543503611,-0.0702469331695594,6.0625,-11.3125,-55.3125,-0.04541015625,1.103515625,-0.05419921875
1969/12/31/18:00:10.099000,75,1731183498,430986157,RL_myo,-0.6811084443385065,-0.7281024857489591,-0.0477264160817842,-0.0606650352753114,18.8125,-12.75,-58.3125,-0.07470703125,1.16943359375,-0.0361328125
1969/12/31/18:00:10.121000,76,1731183498,453463985,RL_myo,-0.6781883820511381,-0.7311642203899059,-0.0552950570678843,-0.0490087536705421,28.75,-18.75,-65.5625,-0.140625,1.1435546875,-0.09912109375
1969/12/31/18:00:10.138000,77,1731183498,470087130,RL_myo,-0.6744734187760614,-0.7348348531412342,-0.0613379590869551,-0.0366196770668389,34.0,-27.6875,-63.3125,-0.14599609375,1.0947265625,-0.11572265625
1969/12/31/18:00:10.159000,78,1731183498,491070582,RL_myo,-0.6708825863058264,-0.7382638067644902,-0.0652450404622387,-0.0250238228152646,35.4375,-32.9375,-58.875,-0.060546875,1.04150390625,-0.07470703125
1969/12/31/18:00:10.182000,79,1731183498,513612610,RL_myo,-0.6677102471981043,-0.7410729270090843,-0.0692123784572806,-0.0135495132429597,28.875,-32.625,-60.0625,-0.06689453125,1.01220703125,-0.11181640625
1969/12/31/18:00:10.198000,80,1731183498,529924472,RL_myo,-0.6648805967698607,-0.7433675113509183,-0.073055083012073,-0.0012206363076369,27.1875,-36.1875,-59.125,-0.1259765625,0.85791015625,-0.0830078125
1969/12/31/18:00:10.219000,81,1731183498,551000887,RL_myo,-0.6637273448992097,-0.7441070150814864,-0.0751308838226139,0.0112299615136969,20.0,-44.125,-56.125,-0.09814453125,0.85205078125,-0.0029296875
1969/12/31/18:00:10.241000,82,1731183498,573631179,RL_myo,-0.6646841800361795,-0.7429253992820138,-0.0754338120030041,0.0238019309718216,2.375,-52.0,-48.5,-0.138671875,0.8916015625,-0.02099609375
1969/12/31/18:00:10.261000,83,1731183498,592685475,RL_myo,-0.6653220088280334,-0.7419796038273921,-0.0739721378496996,0.0366198702226236,1.375,-59.5,-35.625,-0.22998046875,0.7939453125,-0.060546875
1969/12/31/18:00:10.279000,84,1731183498,611109506,RL_myo,-0.6656819339371725,-0.7414843509125065,-0.0683564468698664,0.0489480985621722,8.4375,-72.875,-18.6875,-0.189453125,0.740234375,-0.0048828125
1969/12/31/18:00:10.301000,85,1731183498,633563871,RL_myo,-0.6652775995943028,-0.7417540062265652,-0.0602411918164749,0.0598139493213226,14.875,-76.3125,-11.875,-0.05517578125,0.73779296875,0.00244140625
1969/12/31/18:00:10.324000,86,1731183498,656071514,RL_myo,-0.6634035939531678,-0.7432927663988621,-0.0514488711777847,0.0690257097296258,21.1875,-71.8125,-2.4375,-0.0634765625,0.75537109375,-0.0673828125
1969/12/31/18:00:10.339000,87,1731183498,671026976,RL_myo,-0.6606020396628248,-0.7456795750739462,-0.0416843304776154,0.0763500694399661,25.625,-67.375,7.5,-0.0400390625,0.70361328125,-0.10546875
1969/12/31/18:00:10.361000,88,1731183498,693597781,RL_myo,-0.6587311523788888,-0.7471682356548093,-0.0327748196819664,0.0820896321643292,19.3125,-58.0625,8.3125,-0.02099609375,0.76318359375,-0.08984375
1969/12/31/18:00:10.380000,89,1731183498,711790992,RL_myo,-0.6591984023876313,-0.7464730728268788,-0.0250838388465249,0.0872136392011781,3.8125,-51.375,9.625,-0.0888671875,0.90966796875,-0.04833984375
1969/12/31/18:00:10.399000,90,1731183498,730977564,RL_myo,-0.6612160968262484,-0.7444631667977274,-0.0172719360717951,0.0909370485758824,-8.4375,-46.5625,15.0,-0.0673828125,0.8642578125,-0.04638671875
1969/12/31/18:00:10.421000,91,1731183498,753668364,RL_myo,-0.66304507325893,-0.742630012096342,-0.0097650231702346,0.0936831910394382,-8.1875,-41.5625,17.8125,-0.0615234375,0.818359375,-0.0517578125
1969/12/31/18:00:10.439000,92,1731183498,771479952,RL_myo,-0.6645991056442999,-0.7410136598059919,-0.0036010053478752,0.0958843966357971,-1.875,-33.3125,11.1875,-0.02734375,0.890625,0.0166015625
1969/12/31/18:00:10.459000,93,1731183498,791127453,RL_myo,-0.6664822736166084,-0.7392338185022308,0.0004272322266773,0.0966155164043123,-4.6875,-19.25,5.5,-0.00244140625,0.9892578125,0.01806640625
1969/12/31/18:00:10.481000,94,1731183498,813558875,RL_myo,-0.6689202130867475,-0.7369108259862582,0.0028075118432472,0.0974694872536072,-17.0,-14.25,6.0,-0.1103515625,1.01025390625,-0.0751953125
1969/12/31/18:00:10.500000,95,1731183498,831665064,RL_myo,-0.6725896574642606,-0.733379067521829,0.0051268177156985,0.0987522745714313,-27.9375,-16.25,6.0625,-0.123046875,0.96728515625,-0.07373046875
1969/12/31/18:00:10.519000,96,1731183498,851083153,RL_myo,-0.6769156219356312,-0.7292818290964618,0.0069577478045858,0.0994225541550034,-30.3125,-11.6875,6.0625,-0.1064453125,0.9375,-0.02099609375
1969/12/31/18:00:10.542000,97,1731183498,873602186,RL_myo,-0.6813470797982228,-0.7250450831245868,0.0083612101336757,0.1000293679495957,-29.6875,-9.6875,8.875,-0.1611328125,0.9326171875,0.01513671875
1969/12/31/18:00:10.559000,98,1731183498,891650696,RL_myo,-0.684118052959671,-0.7223246638217241,0.0106197288977591,0.1005822599052134,-21.25,-12.4375,13.3125,-0.1806640625,0.88330078125,-0.0419921875
1969/12/31/18:00:10.579000,99,1731183498,910950875,RL_myo,-0.6854452393976788,-0.7210266279266474,0.0139151913972638,0.1004579168416507,-9.5625,-13.1875,15.9375,-0.1279296875,0.89111328125,-0.0517578125
1969/12/31/18:00:10.601000,100,1731183498,933623515,RL_myo,-0.685819351700583,-0.7207908288318844,0.0173331579498945,0.0990553357488694,-0.5625,-7.875,18.1875,-0.08740234375,0.90185546875,-0.0380859375
1969/12/31/18:00:10.619000,101,1731183498,951552997,RL_myo,-0.6847917070841404,-0.7218998495001081,0.02050713133514,0.0974699069708887,9.4375,-5.4375,19.4375,-0.11474609375,0.90576171875,-0.05712890625
1969/12/31/18:00:10.639000,102,1731183498,971268393,RL_myo,-0.683077411886792,-0.7237251563754092,0.0227041455702186,0.0954550636339298,13.3125,0.3125,13.75,-0.076171875,0.98681640625,-0.08203125
1969/12/31/18:00:10.661000,103,1731183498,993577635,RL_myo,-0.6807623730921261,-0.7261709445087068,0.023985979256339,0.093075364798771,18.75,5.5625,11.5625,-0.0810546875,0.97119140625,-0.07177734375
1969/12/31/18:00:10.679000,104,1731183499,11512879,RL_myo,-0.6788645786063208,-0.7281788444980682,0.0255115880479584,0.0908163708501488,15.875,4.0,13.375,-0.09228515625,1.00927734375,-0.0771484375
1969/12/31/18:00:10.699000,105,1731183499,31099841,RL_myo,-0.6777238545813302,-0.7293587952311686,0.0270381545010383,0.0894151159007248,8.8125,0.5,11.6875,-0.10986328125,1.07958984375,-0.09228515625
1969/12/31/18:00:10.721000,106,1731183499,53562115,RL_myo,-0.6777095075093998,-0.7294654209070918,0.0286854708690037,0.0881315317762584,1.875,-1.1875,11.375,-0.08935546875,1.0322265625,-0.0654296875
1969/12/31/18:00:10.740000,107,1731183499,71708589,RL_myo,-0.6781315620667309,-0.7292157234788318,0.0303941605534364,0.0863609180383785,-0.25,0.625,12.0,-0.04443359375,0.94287109375,-0.041015625
1969/12/31/18:00:10.759000,108,1731183499,91035272,RL_myo,-0.677285869713222,-0.7301406559772259,0.0327748501429215,0.0842869051161538,10.3125,-0.4375,14.1875,-0.02978515625,0.896484375,-0.037109375
1969/12/31/18:00:10.781000,109,1731183499,113618467,RL_myo,-0.6746626303527639,-0.7327053444350398,0.0352772752256104,0.0820288199017653,19.1875,-0.0625,15.4375,-0.03564453125,0.91845703125,-0.11865234375
1969/12/31/18:00:10.799000,110,1731183499,131605331,RL_myo,-0.6712943559742695,-0.7359886024814725,0.0375348694357828,0.0792199358173108,25.5,3.5625,15.75,-0.033203125,0.97900390625,-0.12548828125
1969/12/31/18:00:10.819000,111,1731183499,151096414,RL_myo,-0.6691538943846248,-0.7381809880136845,0.0380228818133547,0.0766560827569398,16.9375,9.4375,10.9375,-0.072265625,1.01220703125,-0.11474609375
1969/12/31/18:00:10.842000,112,1731183499,173643858,RL_myo,-0.6674077543597864,-0.7399772852179287,0.0385125096480132,0.0742784853274677,17.375,8.6875,10.4375,-0.0615234375,0.9697265625,-0.05859375
1969/12/31/18:00:10.860000,113,1731183499,191677581,RL_myo,-0.663361722536864,-0.7439245593892571,0.0393659316437829,0.0705535146980048,46.625,13.0,5.5625,0.06298828125,1.39501953125,0.03173828125
1969/12/31/18:00:10.881000,114,1731183499,212736987,RL_myo,-0.661409240869372,-0.7459392582730889,0.0327744544012967,0.0709808016177059,21.6875,24.0,-32.875,-0.04052734375,1.0283203125,0.00341796875
1969/12/31/18:00:10.897000,115,1731183499,229043628,RL_myo,-0.6554240552472187,-0.7513665652433662,0.0308212261756071,0.0701259185658864,43.25,13.125,0.375,-0.20166015625,1.111328125,-0.177734375
1969/12/31/18:00:10.920000,116,1731183499,251592681,RL_myo,-0.6497414816324515,-0.7563025023848712,0.0298444095921725,0.0703693338645704,41.6875,3.125,-9.75,-0.05078125,1.0517578125,-0.16943359375
1969/12/31/18:00:10.940000,117,1731183499,272586502,RL_myo,-0.6451109695741795,-0.7602788408690212,0.0275865807235126,0.0710415485888689,36.875,5.9375,-19.625,-0.0009765625,0.9833984375,-0.11083984375
1969/12/31/18:00:10.957000,118,1731183499,288929343,RL_myo,-0.6420812447867599,-0.7629902700645709,0.0269771777752612,0.069640180637043,24.625,7.8125,-6.125,0.02783203125,0.9462890625,-0.14013671875
1969/12/31/18:00:10.979000,119,1731183499,311510433,RL_myo,-0.640036840573727,-0.7649071920387643,0.0262435245014496,0.0676838806328085,15.25,10.75,-2.3125,0.01318359375,0.89990234375,-0.16943359375
1969/12/31/18:00:11.000000,120,1731183499,332445040,RL_myo,-0.6389612123548493,-0.7659111905474261,0.0243524237013644,0.0671980413413591,5.1875,9.25,-7.125,-0.0732421875,1.00732421875,-0.21142578125
1969/12/31/18:00:11.017000,121,1731183499,349144783,RL_myo,-0.6408309906153662,-0.7644198245197582,0.0227037265246586,0.0669515806385768,-16.875,6.5,-4.5625,-0.08056640625,0.89306640625,-0.19287109375
1969/12/31/18:00:11.039000,122,1731183499,371638447,RL_myo,-0.6457072554536477,-0.7603843757747634,0.0234358777026654,0.0657913441757119,-46.375,0.75,9.625,-0.05810546875,0.8515625,-0.2890625
1969/12/31/18:00:11.059000,123,1731183499,391679075,RL_myo,-0.6511502307249417,-0.7557590502452857,0.0252672411210165,0.0647549343705279,-55.0625,-5.0625,9.125,0.01513671875,0.947265625,-0.353515625
1969/12/31/18:00:11.082000,124,1731183499,414125922,RL_myo,-0.6573257792187742,-0.7505842556019021,0.0254507752956572,0.0624367940706412,-60.5,5.4375,-0.75,0.1298828125,0.9443359375,-0.3330078125
1969/12/31/18:00:11.099000,125,1731183499,430691053,RL_myo,-0.6661308562486781,-0.7431564326263428,0.0235593284324711,0.0585931484330887,-81.5625,19.9375,-2.125,0.1376953125,0.83056640625,-0.3154296875
1969/12/31/18:00:11.120000,126,1731183499,451873082,RL_myo,-0.675733902411309,-0.7348728250482814,0.0197129742123241,0.0543785140036557,-90.625,28.1875,-14.625,0.2353515625,0.6806640625,-0.30224609375
1969/12/31/18:00:11.142000,127,1731183499,474197370,RL_myo,-0.6857675831925434,-0.7260494099019665,0.0126948787205454,0.0491316219713418,-96.25,44.375,-38.5,0.44580078125,0.64599609375,-0.2958984375
1969/12/31/18:00:11.166000,128,1731183499,498237094,RL_myo,-0.6960869911652202,-0.7167163119029532,0.0014037703460587,0.0421741438750694,-94.3125,69.125,-59.0,0.58203125,0.64794921875,-0.17822265625
1969/12/31/18:00:11.180000,129,1731183499,511742619,RL_myo,-0.7051893654434527,-0.7080579737328626,-0.0139158019145843,0.0341791625972246,-85.875,90.6875,-64.0625,0.466796875,0.6259765625,-0.14306640625
1969/12/31/18:00:11.195000,130,1731183499,527519099,RL_myo,-0.7118194611586434,-0.7011388124659602,-0.0312485264608784,0.0272203960967808,-65.375,95.875,-71.1875,0.37548828125,0.6298828125,-0.07421875
1969/12/31/18:00:11.218000,131,1731183499,550649774,RL_myo,-0.7127967728207739,-0.6991865595885595,-0.0505958151098913,0.0223378387578048,-16.1875,98.8125,-88.75,0.37109375,0.669921875,0.01416015625
1969/12/31/18:00:11.242000,132,1731183499,573880150,RL_myo,-0.7101103431133124,-0.6997348589423401,-0.075008647330147,0.0220936780581881,11.0,101.6875,-105.3125,0.3779296875,0.7919921875,0.08740234375
1969/12/31/18:00:11.255000,133,1731183499,587487300,RL_myo,-0.7064357978299696,-0.7002716496156433,-0.1005183377128259,0.0215440031649226,15.5,108.0,-107.875,0.27490234375,0.94775390625,0.11669921875
1969/12/31/18:00:11.279000,134,1731183499,610737034,RL_myo,-0.7040132273599381,-0.6990085386175441,-0.1242017267167294,0.0180657057042515,2.25,111.625,-86.5,0.0595703125,0.96337890625,0.14892578125
1969/12/31/18:00:11.301000,135,1731183499,633353172,RL_myo,-0.7066816400572202,-0.6927054680585067,-0.1436066930697503,0.0117180132041615,-40.5,101.3125,-57.625,-0.1357421875,0.900390625,0.1357421875
1969/12/31/18:00:11.315000,136,1731183499,647638434,RL_myo,-0.7159219950893312,-0.6805226125529449,-0.1560014168327647,0.0028685706538106,-78.5,80.625,-21.9375,-0.216796875,0.85693359375,0.25146484375
1969/12/31/18:00:11.339000,137,1731183499,670705655,RL_myo,-0.7273584775557156,-0.6671826545258502,-0.1605095482439614,-0.0073236295776712,-104.6875,48.8125,12.375,-0.177734375,0.82080078125,0.27783203125
1969/12/31/18:00:11.361000,138,1731183499,693125120,RL_myo,-0.7417844129095216,-0.6509075829916117,-0.1602703528303771,-0.0197133754623807,-130.9375,34.0625,39.375,-0.326171875,0.822265625,0.291015625
1969/12/31/18:00:11.375000,139,1731183499,707504642,RL_myo,-0.7540461213582474,-0.6375977199376456,-0.1548373136289659,-0.030149638522944,-91.5625,7.5625,76.8125,-0.5419921875,0.8134765625,0.42529296875
1969/12/31/18:00:11.400000,140,1731183499,732158458,RL_myo,-0.7664497810533732,-0.6255861009553333,-0.1402533521946688,-0.0390609858157476,-86.375,-38.6875,98.0,-0.44189453125,0.96337890625,0.486328125
1969/12/31/18:00:11.421000,141,1731183499,753036452,RL_myo,-0.7829021008338655,-0.6091476355178369,-0.1170569246491545,-0.0479701474318224,-139.125,-79.5625,108.0625,-0.28173828125,1.0263671875,0.52001953125
1969/12/31/18:00:11.435000,142,1731183499,767712781,RL_myo,-0.798606959228678,-0.5920128012623749,-0.0905108231208352,-0.0596285058591072,-144.6875,-86.1875,137.375,-0.56103515625,1.0576171875,0.4462890625
1969/12/31/18:00:11.459000,143,1731183499,790705217,RL_myo,-0.8100978901168152,-0.5789029223052808,-0.0567611721395794,-0.0734233226708753,-115.1875,-112.4375,177.125,-0.62353515625,1.0126953125,0.5224609375
1969/12/31/18:00:11.481000,144,1731183499,813232406,RL_myo,-0.8248702139353449,-0.5589464609115714,-0.0150753194851668,-0.0833109761022379,-162.0625,-160.0,178.9375,-0.37841796875,1.03955078125,0.45703125
1969/12/31/18:00:11.502000,145,1731183499,834176462,RL_myo,-0.8416031035944233,-0.5325249894017944,0.0253292688368761,-0.0864857203418157,-200.5,-174.125,144.5625,-0.48193359375,1.154296875,0.42529296875
1969/12/31/18:00:11.519000,146,1731183499,850836328,RL_myo,-0.8494888317660383,-0.516565376253161,0.065425104364767,-0.0851380789075093,-122.1875,-194.5,126.375,-0.57861328125,0.91357421875,0.44873046875
1969/12/31/18:00:11.541000,147,1731183499,873157705,RL_myo,-0.8517491015703267,-0.5061303596533906,0.1063160601128911,-0.0839787019031792,-76.875,-201.25,125.5625,-0.19580078125,0.97509765625,0.6201171875
1969/12/31/18:00:11.562000,148,1731183499,894200743,RL_myo,-0.8525777334445257,-0.4956535022766836,0.1434898884192197,-0.082761500934267,-74.6875,-183.0,115.8125,-0.02392578125,1.30712890625,0.5927734375
1969/12/31/18:00:11.579000,149,1731183499,910700560,RL_myo,-0.8549514560098015,-0.4800252142716368,0.1779114430517255,-0.0835542934949613,-103.1875,-160.75,123.5,-0.12646484375,1.30224609375,0.47607421875
1969/12/31/18:00:11.601000,150,1731183499,933145733,RL_myo,-0.858635435532954,-0.459774007383405,0.2099591909463578,-0.0852654039976924,-126.1875,-143.3125,125.625,-0.1474609375,1.056640625,0.44384765625
1969/12/31/18:00:11.622000,151,1731183499,954405010,RL_myo,-0.8595264688321006,-0.4429768593895751,0.2392490064490402,-0.0880094559437541,-98.9375,-130.4375,116.5,0.1171875,0.91357421875,0.4306640625
1969/12/31/18:00:11.638000,152,1731183499,970562929,RL_myo,-0.8565432697296913,-0.4344360121088743,0.2623827502186078,-0.0935642605455049,-38.875,-102.3125,103.625,0.279296875,0.82177734375,0.52685546875
1969/12/31/18:00:11.662000,153,1731183499,993906826,RL_myo,-0.851598051247034,-0.4306511753457372,0.2808143505903822,-0.1022918608105804,-4.1875,-76.625,101.9375,0.2666015625,0.83154296875,0.4892578125
1969/12/31/18:00:11.682000,154,1731183500,14239326,RL_myo,-0.8466587606390833,-0.4272965674188453,0.2962573258464612,-0.1132174164493583,2.5625,-58.375,107.5625,0.09326171875,0.85888671875,0.43701171875
1969/12/31/18:00:11.698000,155,1731183500,30588899,RL_myo,-0.840788725037071,-0.4253380244471071,0.3107793400035399,-0.1248122054806046,13.25,-54.6875,106.625,0.10498046875,0.822265625,0.4052734375
1969/12/31/18:00:11.721000,156,1731183500,53375993,RL_myo,-0.8335147331627525,-0.4232572801115683,0.3269487021712576,-0.1386037899255042,19.875,-57.0625,117.75,0.4521484375,0.69384765625,0.4169921875
1969/12/31/18:00:11.742000,157,1731183500,74345844,RL_myo,-0.828769591543789,-0.4151477105590141,0.3417858246295912,-0.1548411851937987,-8.4375,-35.0625,133.875,0.80029296875,0.771484375,0.564453125
1969/12/31/18:00:11.759000,158,1731183500,90793184,RL_myo,-0.8282141056749587,-0.4018394747062585,0.3530743258164802,-0.1671076065834957,-49.125,-14.75,115.25,0.89404296875,0.95849609375,0.62646484375
1969/12/31/18:00:11.781000,159,1731183500,113376101,RL_myo,-0.8309027336307279,-0.3914043801067913,0.3559442296558252,-0.1723570823984997,-35.25,-1.125,47.5,0.8720703125,0.5849609375,0.8232421875
1969/12/31/18:00:11.809000,160,1731183500,141548456,RL_myo,-0.8306150040328022,-0.3924501782593076,0.3536934343721132,-0.175961720672097,30.0,9.625,-5.1875,0.80126953125,0.2822265625,0.6318359375
1969/12/31/18:00:11.820000,161,1731183500,152182955,RL_myo,-0.8271331497162674,-0.4031297560416135,0.34795499457884,-0.1796231448948476,74.625,21.125,-22.375,0.76025390625,0.39697265625,0.390625
1969/12/31/18:00:11.843000,162,1731183500,175354957,RL_myo,-0.824000094267601,-0.4123967585338997,0.3425145195933469,-0.1834027318920184,61.5,22.8125,-10.8125,0.6640625,0.49853515625,0.31640625
1969/12/31/18:00:11.862000,163,1731183500,194291363,RL_myo,-0.8234676969257011,-0.4124052199916219,0.3409957028404901,-0.1885333320340565,9.5,21.625,22.5625,0.669921875,0.5419921875,0.32958984375
1969/12/31/18:00:11.879000,164,1731183500,210777430,RL_myo,-0.8249015014378546,-0.4063476025875433,0.3429969249837779,-0.1917609142880837,-28.8125,9.1875,29.75,0.6396484375,0.46630859375,0.35107421875
1969/12/31/18:00:11.901000,165,1731183500,233141797,RL_myo,-0.825203746468278,-0.4012805734064734,0.3468406842082112,-0.1942014881489579,-21.875,-3.875,23.3125,0.72900390625,0.3984375,0.39208984375
1969/12/31/18:00:11.922000,166,1731183500,254241878,RL_myo,-0.8244118953639735,-0.4005489538994491,0.3486722799981034,-0.1957886704417846,1.0625,-3.125,8.5,0.81640625,0.4716796875,0.43408203125
1969/12/31/18:00:11.945000,167,1731183500,276718293,RL_myo,-0.8243104537727952,-0.4021458299947392,0.347033114182742,-0.1958546013739745,11.9375,3.625,-8.3125,0.7236328125,0.494140625,0.47265625
1969/12/31/18:00:11.961000,168,1731183500,293390894,RL_myo,-0.8247311266786077,-0.4029970864692405,0.3448331877254594,-0.1962192386791773,8.6875,7.3125,-4.375,0.63427734375,0.47998046875,0.45703125
1969/12/31/18:00:11.991000,169,1731183500,323373138,RL_myo,-0.8254692718652278,-0.4017792396812417,0.3438590667422324,-0.1973191982210929,-2.125,6.9375,4.4375,0.64697265625,0.47265625,0.453125
1969/12/31/18:00:11.999000,170,1731183500,330852382,RL_myo,-0.8261329413891854,-0.3995173045459225,0.3439168975124157,-0.1990262649135736,-5.375,4.8125,9.3125,0.6796875,0.4384765625,0.466796875
1969/12/31/18:00:12.021000,171,1731183500,353279381,RL_myo,-0.8264896652764786,-0.397925905892973,0.3439129570102612,-0.200732868785581,-1.9375,4.6875,7.875,0.69482421875,0.43603515625,0.46044921875
1969/12/31/18:00:12.042000,172,1731183500,374202636,RL_myo,-0.8260941295111359,-0.398368406599127,0.343559944958861,-0.2020833145778626,7.4375,2.25,3.4375,0.70166015625,0.47021484375,0.4482421875
1969/12/31/18:00:12.059000,173,1731183500,390798274,RL_myo,-0.825643288424652,-0.3995166296590606,0.3430618660729574,-0.2025047627877731,7.9375,0.9375,-0.4375,0.6884765625,0.49755859375,0.42626953125
1969/12/31/18:00:12.059000,1,1731183505,909293480,RL_myo,-0.781590987691754,-0.4780729506941675,0.218437774867155,-0.3359266590860076,39.0625,129.9375,-78.875,0.88720703125,1.13427734375,0.6767578125
1969/12/31/18:00:12.076000,2,1731183505,925698553,RL_myo,-0.7921580606822597,-0.4774676407055487,0.1876179889465495,-0.3306202492268896,14.8125,138.4375,-120.3125,0.4716796875,1.18994140625,0.31103515625
1969/12/31/18:00:12.098000,3,1731183505,948150958,RL_myo,-0.8038550917365296,-0.4729385092905905,0.1568527511778058,-0.3248743947546539,-7.3125,143.5,-116.4375,0.013671875,1.1435546875,0.22509765625
1969/12/31/18:00:12.121000,4,1731183505,971138454,RL_myo,-0.8158228560141008,-0.4647022686983887,0.1334172786150089,-0.3173085231104443,-38.4375,114.125,-109.0625,0.3525390625,0.92578125,0.30517578125
1969/12/31/18:00:12.136000,5,1731183505,985698180,RL_myo,-0.8270448566146666,-0.4536509792057278,0.1108341421011168,-0.3129111489826135,-43.5,125.1875,-96.6875,0.7109375,0.55126953125,0.5009765625
1969/12/31/18:00:12.158000,6,1731183506,8163435,RL_myo,-0.8352512184085997,-0.4464031721914869,0.0749498353091531,-0.3121892570084024,9.375,182.625,-103.0625,-0.041015625,0.486328125,0.51708984375
1969/12/31/18:00:12.179000,7,1731183506,29145685,RL_myo,-0.8364570929763968,-0.4504234473670783,0.0213615456068397,-0.3114513349477236,104.75,241.1875,-132.125,-0.51904296875,1.05615234375,0.27734375
1969/12/31/18:00:12.195000,8,1731183506,45059506,RL_myo,-0.8282781296356603,-0.4772776489389775,-0.0318591985608882,-0.2917985216850705,238.4375,152.75,-214.625,-0.18505859375,0.9365234375,0.29296875
1969/12/31/18:00:12.218000,9,1731183506,68231072,RL_myo,-0.8175906408281869,-0.5021749621330488,-0.0750699080485719,-0.2715333503317859,218.75,106.625,-184.375,-0.31640625,1.1435546875,0.31591796875
1969/12/31/18:00:12.241000,10,1731183506,90787775,RL_myo,-0.808106575961503,-0.519431694585632,-0.1156530444412845,-0.2525447482311532,176.0,109.9375,-177.8125,-0.302734375,1.11865234375,0.31640625
1969/12/31/18:00:12.255000,11,1731183506,105098304,RL_myo,-0.7991481556460673,-0.5309141443382572,-0.1548982754719504,-0.2355820895672689,148.0,118.5,-169.9375,-0.3232421875,0.96044921875,0.40185546875
1969/12/31/18:00:12.278000,12,1731183506,128419677,RL_myo,-0.7865077925982285,-0.5445805100763554,-0.1916376556807975,-0.2193457753238172,167.6875,109.5,-151.6875,-0.396484375,0.80419921875,0.42822265625
1969/12/31/18:00:12.301000,13,1731183506,150667703,RL_myo,-0.7710852845030459,-0.5605229739493409,-0.2224026259877393,-0.204398022621553,177.125,87.375,-120.9375,-0.4560546875,0.9462890625,0.40380859375
1969/12/31/18:00:12.315000,14,1731183506,165136346,RL_myo,-0.7561126316128599,-0.5721653015877441,-0.2547432500082393,-0.1898063027133743,156.25,100.8125,-133.375,-0.29443359375,0.728515625,0.16015625
1969/12/31/18:00:12.338000,15,1731183506,188275533,RL_myo,-0.7432493748713,-0.5800494382309769,-0.2806257698848939,-0.1799227424142382,124.0625,88.8125,-90.9375,-0.8447265625,0.8017578125,0.431640625
1969/12/31/18:00:12.361000,16,1731183506,210653901,RL_myo,-0.7280080966459049,-0.5952601413973433,-0.2968671514156339,-0.1659502024463628,160.625,31.6875,-66.0625,-0.65087890625,0.8115234375,0.45947265625
1969/12/31/18:00:12.375000,17,1731183506,225214350,RL_myo,-0.711425813834995,-0.614449265993886,-0.3060040345344998,-0.1506218502654857,174.0625,-4.0,-41.3125,-0.51806640625,0.73876953125,0.1962890625
1969/12/31/18:00:12.404000,18,1731183506,254298988,RL_myo,-0.6972978815294297,-0.6331525796924554,-0.3077875900702769,-0.1347600632312456,158.3125,-39.25,-24.0,-0.310546875,0.7314453125,0.18603515625
1969/12/31/18:00:12.421000,19,1731183506,270782571,RL_myo,-0.689047599224451,-0.6476681242665965,-0.3016185328048925,-0.1215140628924607,108.1875,-69.0,0.4375,-0.1318359375,0.72705078125,0.07861328125
1969/12/31/18:00:12.435000,20,1731183506,285087977,RL_myo,-0.6851517090971488,-0.6584194403830431,-0.2908202292756025,-0.1116896158603048,71.6875,-78.875,12.75,-0.0458984375,0.73876953125,0.0517578125
1969/12/31/18:00:12.458000,21,1731183506,308252200,RL_myo,-0.6820973260314249,-0.6681209223394783,-0.2778191685840235,-0.1057079964823217,59.1875,-73.0,34.3125,-0.04443359375,0.74609375,0.07470703125
1969/12/31/18:00:12.481000,22,1731183506,330871629,RL_myo,-0.6778188505582526,-0.6790394859815523,-0.2623755842382431,-0.1030826614976489,58.4375,-69.9375,59.125,-0.01806640625,0.72509765625,0.02587890625
1969/12/31/18:00:12.503000,23,1731183506,353231207,RL_myo,-0.6720256134510595,-0.6918610801999101,-0.2434574672651236,-0.102167911807926,69.0,-75.8125,74.1875,0.12744140625,0.75732421875,0.03173828125
1969/12/31/18:00:12.518000,24,1731183506,368300799,RL_myo,-0.6672583297464676,-0.7029007759709199,-0.2228263204888277,-0.1050963910933336,50.3125,-68.875,86.5,0.2490234375,0.74560546875,0.00341796875
1969/12/31/18:00:12.541000,25,1731183506,390630893,RL_myo,-0.664108871929981,-0.7107387017392361,-0.2032425828073556,-0.111813937448371,18.625,-50.9375,96.5625,0.18701171875,0.8662109375,-0.13916015625
1969/12/31/18:00:12.555000,26,1731183506,404936198,RL_myo,-0.6579342334572772,-0.7205539480701869,-0.184563369385418,-0.1177323874154997,39.25,-47.9375,99.625,0.142578125,0.8515625,-0.15478515625
1969/12/31/18:00:12.580000,27,1731183506,429853968,RL_myo,-0.6532413206940322,-0.7284345662415467,-0.1658889946413509,-0.1230434927141146,33.5625,-50.4375,94.75,0.17041015625,0.7802734375,-0.0546875
1969/12/31/18:00:12.601000,28,1731183506,450709012,RL_myo,-0.6554285511368075,-0.7294610339125732,-0.1475767051539995,-0.1285345496502576,-25.625,-48.8125,90.75,0.07470703125,0.8603515625,-0.123046875
1969/12/31/18:00:12.622000,29,1731183506,471749412,RL_myo,-0.6563399271608418,-0.7315925894436499,-0.1299985163522961,-0.1307309023599147,-28.875,-58.9375,84.75,-0.009765625,0.8369140625,-0.35302734375
1969/12/31/18:00:12.638000,30,1731183506,488167976,RL_myo,-0.6536356914977071,-0.7368811707883581,-0.1118077111880298,-0.1313984728099499,-0.4375,-68.25,72.125,0.2099609375,0.755859375,-0.33740234375
1969/12/31/18:00:12.660000,31,1731183506,510515724,RL_myo,-0.648770553692554,-0.7430650509131558,-0.097590227220545,-0.1320122961088423,25.8125,-54.375,49.4375,0.35009765625,0.81884765625,-0.205078125
1969/12/31/18:00:12.682000,32,1731183506,531886164,RL_myo,-0.6449094514330974,-0.7476848386019567,-0.0872736363726061,-0.1320700343428809,19.375,-39.75,43.9375,0.1650390625,1.0009765625,-0.224609375
1969/12/31/18:00:12.698000,33,1731183506,548259099,RL_myo,-0.6443165506019248,-0.7492308397451197,-0.0768394939099955,-0.1326839235586421,-12.625,-36.1875,44.875,0.154296875,1.02294921875,-0.3212890625
1969/12/31/18:00:12.721000,34,1731183506,570789232,RL_myo,-0.6452382003730116,-0.7489938701265226,-0.0670749888582992,-0.1348213379326506,-25.75,-26.5625,41.9375,0.20654296875,0.927734375,-0.30419921875
1969/12/31/18:00:12.743000,35,1731183506,593397459,RL_myo,-0.6463297344550808,-0.7483143412798626,-0.0603607277975519,-0.1365287644925416,-20.25,-16.9375,30.9375,0.16162109375,0.921875,-0.2236328125
1969/12/31/18:00:12.758000,36,1731183506,608182316,RL_myo,-0.6495082341363493,-0.7460617040107812,-0.0546851510793242,-0.1361635848861299,-32.375,-20.75,23.1875,0.08984375,1.046875,-0.21435546875
1969/12/31/18:00:12.781000,37,1731183506,630739806,RL_myo,-0.6542621746260877,-0.742087106462556,-0.0497410142089796,-0.1370166587719745,-39.5625,-13.75,15.5,0.21923828125,1.15478515625,-0.12744140625
1969/12/31/18:00:12.802000,38,1731183506,651772336,RL_myo,-0.6577868202595668,-0.7386522439786173,-0.0513266576209218,-0.1381120406612914,-29.9375,12.25,-10.75,0.2197265625,1.1630859375,-0.15673828125
1969/12/31/18:00:12.818000,39,1731183506,668184550,RL_myo,-0.6558113643302335,-0.7404046217487261,-0.0571889481970617,-0.1358008641819236,14.875,13.5625,-19.9375,-0.0302734375,1.060546875,-0.1904296875
1969/12/31/18:00:12.856000,40,1731183506,706381051,RL_myo,-0.6512285901662855,-0.7444879421601078,-0.0588363974620711,-0.1348232385826921,28.4375,3.5625,16.125,-0.17919921875,1.06640625,-0.23876953125
1969/12/31/18:00:12.862000,41,1731183506,711782055,RL_myo,-0.6441899511238135,-0.7513006440866077,-0.057308798115136,-0.1314623547816858,47.5625,-19.4375,19.9375,-0.12939453125,1.04443359375,-0.25390625
1969/12/31/18:00:12.878000,42,1731183506,728122531,RL_myo,-0.6396218784255885,-0.7557059254451943,-0.0552345228983928,-0.1293891586128099,38.6875,-18.75,7.5625,0.10107421875,0.99951171875,-0.099609375
1969/12/31/18:00:12.900000,43,1731183506,750648942,RL_myo,-0.637717344897968,-0.7574609979451317,-0.0545010612492951,-0.1288373351593081,15.5,-6.0625,3.875,0.123046875,1.02197265625,-0.138671875
1969/12/31/18:00:12.922000,44,1731183506,771740568,RL_myo,-0.6372955598183875,-0.7580167451584345,-0.0558442288099812,-0.1270685075217279,4.875,-1.3125,-2.875,-0.0048828125,1.00390625,-0.16748046875
1969/12/31/18:00:12.952000,45,1731183506,801627862,RL_myo,-0.6368536654148929,-0.7586095889896616,-0.0566973699252932,-0.1253567253245989,0.3125,-2.1875,2.1875,-0.05908203125,0.9404296875,-0.22216796875
1969/12/31/18:00:12.961000,46,1731183506,810657301,RL_myo,-0.6341911739625082,-0.7613223658943632,-0.0559059874265862,-0.1227368348415555,12.875,-12.6875,7.125,-0.04931640625,0.88818359375,-0.27587890625
1969/12/31/18:00:12.982000,47,1731183506,831817893,RL_myo,-0.6314949258975353,-0.7638116359918483,-0.0527924143134597,-0.1225516392386441,12.4375,-12.25,15.1875,0.119140625,0.91064453125,-0.25146484375
1969/12/31/18:00:12.998000,48,1731183506,848222566,RL_myo,-0.6295271378245721,-0.765380497863108,-0.0508382070584458,-0.1237083381842373,6.875,-2.375,12.6875,0.1572265625,1.01171875,-0.26806640625
1969/12/31/18:00:13.021000,49,1731183506,870770050,RL_myo,-0.6271005645930272,-0.7672293136252014,-0.050717330333509,-0.1246267010120643,7.8125,4.5625,7.9375,0.109375,1.02001953125,-0.322265625
1969/12/31/18:00:13.042000,50,1731183506,892299050,RL_myo,-0.6228169061042107,-0.7703888099709408,-0.050777429287477,-0.1265773898344079,20.125,9.5,13.125,0.10009765625,1.03369140625,-0.34423828125
1969/12/31/18:00:13.066000,51,1731183506,915655047,RL_myo,-0.6194290158688444,-0.7727451739004274,-0.0507188404953206,-0.1288417235687388,11.1875,11.6875,15.5625,0.08544921875,1.0244140625,-0.37744140625
1969/12/31/18:00:13.081000,52,1731183506,930737455,RL_myo,-0.6174077622464397,-0.7742620474355807,-0.0511454828749027,-0.129267461490506,5.75,5.8125,10.9375,0.01171875,1.0732421875,-0.35498046875
1969/12/31/18:00:13.101000,53,1731183506,951719044,RL_myo,-0.616616574232359,-0.7749362212242169,-0.0504743053439731,-0.1292679307358345,2.75,-0.125,13.875,0.00390625,1.06005859375,-0.26416015625
1969/12/31/18:00:13.118000,54,1731183506,968237968,RL_myo,-0.616179405749118,-0.7753509479632326,-0.0502293632063712,-0.1289606858506226,0.6875,-0.75,7.625,0.05224609375,1.08740234375,-0.267578125
1969/12/31/18:00:13.141000,55,1731183506,990659323,RL_myo,-0.6150903386688049,-0.7765835948821069,-0.0526714588481026,-0.1257279318969774,6.9375,-3.375,-11.0625,0.005859375,1.13623046875,-0.3212890625
1969/12/31/18:00:13.161000,56,1731183507,11764028,RL_myo,-0.613571391566154,-0.778545376585881,-0.0562120015550012,-0.1193208067752741,11.25,-13.375,-24.625,-0.03125,1.2177734375,-0.3759765625
1969/12/31/18:00:13.178000,57,1731183507,27675782,RL_myo,-0.613127084686233,-0.7797443394337361,-0.0590789386797007,-0.1121767451376962,6.5625,-20.9375,-31.4375,0.04541015625,1.2099609375,-0.3359375
1969/12/31/18:00:13.202000,58,1731183507,52292740,RL_myo,-0.61422436960417,-0.7794985739849423,-0.0627407245581366,-0.1057071351504791,-2.4375,-15.9375,-39.1875,0.09423828125,1.15771484375,-0.283203125
1969/12/31/18:00:13.221000,59,1731183507,71651950,RL_myo,-0.6142830160629724,-0.7798617366371248,-0.0695760197031086,-0.0981388067391216,6.125,-9.0625,-53.0,0.01708984375,1.1171875,-0.2841796875
1969/12/31/18:00:13.237000,60,1731183507,87509594,RL_myo,-0.6119224033944267,-0.782144982994173,-0.0778788137573597,-0.0879493500190872,23.3125,-13.75,-60.3125,-0.10498046875,1.0869140625,-0.32177734375
1969/12/31/18:00:13.260000,61,1731183507,110634540,RL_myo,-0.6074442304023479,-0.7860217264494964,-0.086176153253101,-0.075861868621533,39.9375,-22.5625,-66.0625,-0.12158203125,1.12255859375,-0.33740234375
1969/12/31/18:00:13.283000,62,1731183507,133211582,RL_myo,-0.6032541152688303,-0.7894670154797976,-0.0935031671986896,-0.0639019687056318,41.375,-25.9375,-64.125,-0.12109375,1.083984375,-0.2744140625
1969/12/31/18:00:13.298000,63,1731183507,147685541,RL_myo,-0.6007983845415599,-0.791462154686606,-0.0999092803224841,-0.0514499226095626,29.125,-31.375,-61.5625,-0.1650390625,1.02783203125,-0.25732421875
1969/12/31/18:00:13.321000,64,1731183507,171333657,RL_myo,-0.5979347422740567,-0.7937878185175443,-0.1041823624642048,-0.0389997244373912,29.125,-38.5,-51.875,-0.177734375,0.87060546875,-0.26220703125
1969/12/31/18:00:13.343000,65,1731183507,193199637,RL_myo,-0.5940208458411964,-0.7970120441631752,-0.1058898764547904,-0.0264266953918871,35.4375,-47.3125,-40.4375,-0.18212890625,0.7470703125,-0.2490234375
1969/12/31/18:00:13.357000,66,1731183507,207610283,RL_myo,-0.5883716457745003,-0.8014427469569464,-0.1063219301804128,-0.014282050322742,47.1875,-50.0625,-35.25,-0.14501953125,0.73388671875,-0.25146484375
1969/12/31/18:00:13.380000,67,1731183507,230536329,RL_myo,-0.5818304743583678,-0.806494061488668,-0.1049772805933486,-0.0045164643976208,57.5,-44.9375,-21.8125,-0.11572265625,0.77734375,-0.197265625
1969/12/31/18:00:13.410000,68,1731183507,260547444,RL_myo,-0.5744965130453001,-0.8120340068063017,-0.1026562344568357,0.0040281281059162,62.0625,-40.9375,-10.125,-0.1630859375,0.7353515625,-0.19384765625
1969/12/31/18:00:13.417000,69,1731183507,267397208,RL_myo,-0.5665209284923702,-0.8179824912362365,-0.0990587661003142,0.012084803258079,65.0,-42.25,-1.6875,-0.17138671875,0.7197265625,-0.22607421875
1969/12/31/18:00:13.441000,70,1731183507,290740539,RL_myo,-0.5578977615790643,-0.8243655032981536,-0.0939899959338977,0.0183707719325345,66.625,-40.875,5.125,-0.087890625,0.71923828125,-0.2705078125
1969/12/31/18:00:13.463000,71,1731183507,312984853,RL_myo,-0.5489985188067353,-0.8309133779916503,-0.087583421288234,0.022643518674519,67.75,-36.625,14.875,-0.0400390625,0.70068359375,-0.2763671875
1969/12/31/18:00:13.477000,72,1731183507,327532070,RL_myo,-0.541155835508951,-0.8366036081151123,-0.081048263173101,0.0259989157467929,60.3125,-32.125,20.9375,-0.0869140625,0.751953125,-0.306640625
1969/12/31/18:00:13.514000,73,1731183507,364253391,RL_myo,-0.535125601839378,-0.8409552540767323,-0.0745806894899315,0.0295393238241627,46.0625,-32.9375,22.4375,-0.13525390625,0.80029296875,-0.361328125
1969/12/31/18:00:13.523000,74,1731183507,373254587,RL_myo,-0.5310866044054131,-0.8440505330874354,-0.0671334480402154,0.0319189030227569,32.625,-33.125,26.4375,-0.068359375,0.79150390625,-0.36474609375
1969/12/31/18:00:13.544000,75,1731183507,394177551,RL_myo,-0.529893636681279,-0.845315234742653,-0.0595687847732006,0.0332633070711007,18.3125,-30.375,28.0625,-0.03955078125,0.8642578125,-0.3125
1969/12/31/18:00:13.561000,76,1731183507,410826358,RL_myo,-0.5304855713607163,-0.8453469453425312,-0.0524870675759567,0.0349100030854037,5.1875,-28.75,29.0,-0.10595703125,0.86669921875,-0.326171875
1969/12/31/18:00:13.583000,77,1731183507,433258584,RL_myo,-0.5312416822041921,-0.8452626443986508,-0.0455315136631809,0.0352167337582512,-1.25,-24.9375,28.5625,-0.02685546875,0.79931640625,-0.3671875
1969/12/31/18:00:13.606000,78,1731183507,455698900,RL_myo,-0.5312367853167878,-0.8456210547523086,-0.0392446292461735,0.034239870928621,3.375,-16.9375,28.25,-0.0029296875,0.7900390625,-0.36279296875
1969/12/31/18:00:13.621000,79,1731183507,470739069,RL_myo,-0.5309092113318348,-0.8460736172770692,-0.0335670842892871,0.0341773949127287,7.1875,-16.375,28.0,-0.099609375,0.89013671875,-0.3828125
1969/12/31/18:00:13.643000,80,1731183507,493088170,RL_myo,-0.5311182763333578,-0.8461149925085429,-0.0280756615850775,0.0348504407936505,1.625,-19.6875,25.0625,-0.1005859375,0.9541015625,-0.4404296875
1969/12/31/18:00:13.648000,81,1731183507,498488987,RL_myo,-0.5323956321395058,-0.8455587627720639,-0.0217889763468764,0.033324316765811,-6.875,-15.125,28.3125,0.029296875,0.8818359375,-0.41943359375
1969/12/31/18:00:13.671000,82,1731183507,521095998,RL_myo,-0.5336617156266633,-0.8449847269957861,-0.0162344483482036,0.0306989756358887,-3.1875,-6.4375,30.625,0.0009765625,0.87841796875,-0.35888671875
1969/12/31/18:00:13.686000,83,1731183507,536022780,RL_myo,-0.5345332280001818,-0.8445234386661926,-0.0122067419045485,0.0300896187947122,-1.6875,-7.375,25.3125,-0.12939453125,0.97314453125,-0.40771484375
1969/12/31/18:00:13.708000,84,1731183507,558598124,RL_myo,-0.5351543969469117,-0.8441743230124014,-0.0086059272319245,0.0300902278392823,-1.875,-10.3125,19.375,-0.09619140625,1.00048828125,-0.4443359375
1969/12/31/18:00:13.731000,85,1731183507,581014568,RL_myo,-0.5359201403023962,-0.8437644846464671,-0.0042111934495917,0.0288680362558972,-2.375,-9.0625,21.875,-0.00537109375,0.9267578125,-0.40673828125
1969/12/31/18:00:13.746000,86,1731183507,596094149,RL_myo,-0.5375744483776125,-0.8427980878345199,0.0004882601710968,0.0265491468033902,-8.8125,-5.3125,25.6875,0.0224609375,0.93359375,-0.40966796875
1969/12/31/18:00:13.768000,87,1731183507,618577342,RL_myo,-0.5385607707210793,-0.8422030910222318,0.0032958161399522,0.0252068901074122,-5.75,-2.375,17.9375,-0.04248046875,0.97705078125,-0.4462890625
1969/12/31/18:00:13.791000,88,1731183507,640981302,RL_myo,-0.5386538071208001,-0.842157702748688,0.0054317005250114,0.0243511068480851,-2.9375,-2.125,13.625,-0.046875,0.931640625,-0.46875
1969/12/31/18:00:13.806000,89,1731183507,656031356,RL_myo,-0.5387455062265744,-0.8421446125426841,0.0079343962625415,0.0219721742654998,1.25,2.4375,16.6875,0.01123046875,0.9345703125,-0.412109375
1969/12/31/18:00:13.828000,90,1731183507,678462949,RL_myo,-0.5384171871643723,-0.8424135609192734,0.0092767413793906,0.0189807011117796,5.4375,9.75,13.9375,0.00537109375,0.919921875,-0.3798828125
1969/12/31/18:00:13.851000,91,1731183507,701061949,RL_myo,-0.5363475735973706,-0.8437648162248121,0.0100092173497916,0.0170889076703759,5.375,8.375,12.8125,-0.07763671875,0.87451171875,-0.54931640625
1969/12/31/18:00:13.866000,92,1731183507,716057167,RL_myo,-0.5369015026913305,-0.8433448862326708,0.0111689183804153,0.0195303490805076,-7.875,-13.375,2.625,-0.10546875,1.4794921875,-0.7490234375
1969/12/31/18:00:13.888000,93,1731183507,738540292,RL_myo,-0.5404467857710015,-0.8410340720411519,0.0087887450198785,0.0223990932103848,-23.875,-12.5,-33.0625,0.18603515625,0.7724609375,-0.34228515625
1969/12/31/18:00:13.911000,94,1731183507,760936784,RL_myo,-0.5436803099826311,-0.8390791313023362,0.0081173643048596,0.0170891880102308,-16.3125,22.9375,3.5,0.1357421875,0.90869140625,-0.3212890625
1969/12/31/18:00:13.926000,95,1731183507,776171014,RL_myo,-0.5414636371701091,-0.8405746928250578,0.0026853471636028,0.0156238380427804,17.375,26.5625,-16.3125,-0.1083984375,1.0087890625,-0.42041015625
1969/12/31/18:00:13.948000,96,1731183507,798516290,RL_myo,-0.5367806846864334,-0.843529942359431,-0.0032347215791223,0.0176994199612354,43.0,11.5625,-29.5,-0.13134765625,1.015625,-0.28564453125
1969/12/31/18:00:13.971000,97,1731183507,821048606,RL_myo,-0.5347551940638194,-0.8447935855091746,-0.0058589932241641,0.0180652291078395,26.375,8.625,-10.75,-0.0966796875,1.0849609375,-0.3115234375
1969/12/31/18:00:13.986000,98,1731183507,835979044,RL_myo,-0.5374069282324317,-0.8431276895630678,-0.0062865319259444,0.0170285670615387,-6.25,6.9375,2.125,-0.05615234375,1.0810546875,-0.3203125
1969/12/31/18:00:14.009000,99,1731183507,858731843,RL_myo,-0.5408082916779932,-0.8409657432604749,-0.0070187285343605,0.0159294621518966,-16.875,6.9375,-0.8125,-0.0224609375,0.97900390625,-0.3505859375
1969/12/31/18:00:14.031000,100,1731183507,881019271,RL_myo,-0.5442106331989459,-0.8387447271563434,-0.0093987257499874,0.015929009225628,-23.0,7.6875,-9.4375,-0.06396484375,0.93310546875,-0.4052734375
1969/12/31/18:00:14.046000,101,1731183507,896055599,RL_myo,-0.5481201669096741,-0.8361258530968194,-0.0116569370760213,0.0179431387452894,-27.9375,-2.5,-15.75,-0.0615234375,0.87255859375,-0.392578125
1969/12/31/18:00:14.072000,102,1731183507,921534038,RL_myo,-0.5538621257123023,-0.8322884637287786,-0.0119011696434048,0.0197742510998111,-46.5625,-11.0625,-11.0,0.02197265625,0.8408203125,-0.4609375
1969/12/31/18:00:14.091000,103,1731183507,941110249,RL_myo,-0.5637727620243922,-0.8256094134355261,-0.0116575292353208,0.0198361099553889,-84.0625,-7.3125,-8.1875,0.1142578125,0.779296875,-0.5439453125
1969/12/31/18:00:14.106000,104,1731183507,956165153,RL_myo,-0.5801236445381883,-0.8141261751178215,-0.0128170400160988,0.0221551691706851,-119.625,-11.125,-15.25,0.16845703125,0.80126953125,-0.591796875
1969/12/31/18:00:14.128000,105,1731183507,978657144,RL_myo,-0.604048097360914,-0.7963645119091852,-0.0167841999367739,0.0254509504495808,-174.5625,-8.6875,-35.0,0.3759765625,0.80126953125,-0.443359375
1969/12/31/18:00:14.160000,106,1731183508,9921486,RL_myo,-0.6332712929440134,-0.773035292639637,-0.026365959767908,0.0262438951393529,-219.875,20.0,-56.5,0.662109375,0.69775390625,-0.37548828125
1969/12/31/18:00:14.173000,107,1731183508,23541399,RL_myo,-0.663407209069255,-0.7467145540903712,-0.0425996533514572,0.0222152920056309,-235.25,65.875,-70.5,0.76220703125,0.634765625,-0.23828125
1969/12/31/18:00:14.188000,108,1731183508,38623654,RL_myo,-0.6883941720666319,-0.7223286662300371,-0.0640238927651296,0.0159907148755614,-205.375,97.8125,-82.6875,0.62158203125,0.58203125,-0.109375
1969/12/31/18:00:14.211000,109,1731183508,61233469,RL_myo,-0.7034717162937366,-0.7048754859861499,-0.0900853941740027,0.0127559941614949,-134.6875,108.8125,-110.625,0.521484375,0.5771484375,0.0361328125
1969/12/31/18:00:14.226000,110,1731183508,76018076,RL_myo,-0.7095602572121066,-0.6939970484052008,-0.1212099321196665,0.0141594684047143,-67.625,116.25,-146.4375,0.4599609375,0.6591796875,0.14404296875
1969/12/31/18:00:14.249000,111,1731183508,98702641,RL_myo,-0.7129544935988439,-0.6837210402146763,-0.1546504611179139,0.017454629786789,-52.875,120.3125,-162.3125,0.3310546875,0.7509765625,0.20166015625
1969/12/31/18:00:14.271000,112,1731183508,120965020,RL_myo,-0.7151717450208602,-0.6734259288752493,-0.1862083114916064,0.0187978236445148,-49.9375,121.75,-142.375,0.02880859375,0.7802734375,0.1904296875
1969/12/31/18:00:14.286000,113,1731183508,136170043,RL_myo,-0.7161012074251112,-0.6651996130338607,-0.2107472487206093,0.017150297390817,-39.3125,105.9375,-98.25,-0.193359375,0.82666015625,0.17626953125
1969/12/31/18:00:14.308000,114,1731183508,158582612,RL_myo,-0.7212176193449445,-0.6540821889244115,-0.2276501413350802,0.0140374081788387,-56.1875,79.25,-68.0,-0.25390625,0.81005859375,0.25439453125
1969/12/31/18:00:14.327000,115,1731183508,177098381,RL_myo,-0.7312951035730327,-0.6387693668832716,-0.238943442704759,0.0093380195999561,-106.6875,50.5625,-43.5,-0.25244140625,0.84033203125,0.171875
1969/12/31/18:00:14.346000,116,1731183508,196070754,RL_myo,-0.7428395615793741,-0.6231527338530449,-0.2446835759076256,-6.103356844789863,-119.0625,42.0625,0.5,-0.4921875,0.814453125,0.1865234375
1969/12/31/18:00:14.368000,117,1731183508,218487413,RL_myo,-0.7523334083800784,-0.6131209069997784,-0.2407686619663673,-0.0103753289060285,-79.75,7.875,71.125,-0.73828125,0.85107421875,0.2958984375
1969/12/31/18:00:14.386000,118,1731183508,236520278,RL_myo,-0.763852672951869,-0.6051744251350858,-0.2230649983732087,-0.0231304061240618,-89.6875,-46.625,111.0,-0.63623046875,0.85888671875,0.3857421875
1969/12/31/18:00:14.406000,119,1731183508,256205321,RL_myo,-0.7845074872607875,-0.5879228741857138,-0.194265390691698,-0.0339949175668475,-163.9375,-113.3125,126.5,-0.5234375,1.060546875,0.33251953125
1969/12/31/18:00:14.436000,120,1731183508,286150253,RL_myo,-0.8080780602024389,-0.5648612120221731,-0.1611273473515437,-0.0444931197800285,-206.125,-143.125,151.4375,-1.6708984375,1.17138671875,0.13427734375
