time,.header.seq,.header.stamp.secs,.header.stamp.nsecs,.header.frame_id,.orientation.x,.orientation.y,.orientation.z,.orientation.w,.angular_velocity.x,.angular_velocity.y,.angular_velocity.z,.linear_acceleration.x,.linear_acceleration.y,.linear_acceleration.z
1969/12/31/18:00:25.993,1,1730346250,521685863,RU_myo,0.544889886070775,0.6166100178208771,-0.03851523671005479,0.5669247520808064,-173.25,215.625,-29.125,0.8740234375,0.59716796875,0.4619140625
1969/12/31/18:00:26.011,2,1730346250,539702883,RU_myo,0.5686391377856322,0.5701040733059044,-0.03277793226608894,0.5920781061099863,-203.0625,262.625,-11.375,0.90625,0.5498046875,0.513671875
1969/12/31/18:00:26.033,3,1730346250,562204599,RU_myo,0.5900643440969285,0.515962956517155,-0.02801691672085344,0.6203397050850403,-223.6875,296.0625,10.5625,0.90380859375,0.50537109375,0.62353515625
1969/12/31/18:00:26.054,4,1730346250,582385038,RU_myo,0.6069802990441859,0.458714495908795,-0.023256184024118547,0.6485484389928072,-221.0625,307.3125,27.3125,0.8798828125,0.45361328125,0.705078125
1969/12/31/18:00:26.069,5,1730346250,598080222,RU_myo,0.6174767300609539,0.40322768671240233,-0.017030052163602823,0.6751591648086409,-192.8125,302.75,41.0,0.87841796875,0.39208984375,0.72900390625
1969/12/31/18:00:26.093,6,1730346250,621428720,RU_myo,0.6209914639726238,0.3524282202651789,-0.005493339075834101,0.7000955466646349,-139.6875,301.4375,48.1875,0.9384765625,0.28369140625,0.73193359375
1969/12/31/18:00:26.114,7,1730346250,642344756,RU_myo,0.6179121481238017,0.3095969984474881,0.013734093976870037,0.7225964644363889,-66.5,293.9375,49.5,0.958984375,0.19091796875,0.7138671875
1969/12/31/18:00:26.129,8,1730346250,658190449,RU_myo,0.6078119099823597,0.2769883960132505,0.04107827027697611,0.7430711179077372,15.875,278.0,58.125,0.88623046875,0.17236328125,0.67431640625
1969/12/31/18:00:26.152,9,1730346250,681170539,RU_myo,0.5901203185652559,0.254469549865386,0.07672540757514756,0.7623099564089244,98.0,264.0,76.125,0.80224609375,0.20947265625,0.61181640625
1969/12/31/18:00:26.174,10,1730346250,702488000,RU_myo,0.568814521581228,0.2431759903401237,0.11847504951058736,0.7767104611139743,170.375,227.125,72.3125,0.5927734375,0.2197265625,0.60791015625
1969/12/31/18:00:26.190,11,1730346250,718791010,RU_myo,0.5444021426507534,0.23945393044275204,0.16333895433719206,0.787152150647395,213.5625,200.25,74.625,0.51806640625,0.38671875,0.521484375
1969/12/31/18:00:26.212,12,1730346250,741066200,RU_myo,0.5199774496707456,0.23651985179881901,0.20758813315297636,0.7940963282329381,213.3125,189.6875,65.0,0.51123046875,0.58642578125,0.40234375
1969/12/31/18:00:26.234,13,1730346250,762377154,RU_myo,0.5009932824343991,0.22797391689723204,0.24482018224224839,0.7981833765100679,160.0625,182.375,35.5625,0.39892578125,0.76611328125,0.51708984375
1969/12/31/18:00:26.249,14,1730346250,778280308,RU_myo,0.4878181566827316,0.2155873034789049,0.2721087765880402,0.8009446761750255,95.4375,158.8125,14.625,0.16943359375,0.8974609375,0.39794921875
1969/12/31/18:00:26.273,15,1730346250,801395390,RU_myo,0.48103252974120975,0.19629496455370266,0.2846765281960414,0.8056272503558213,-1.9375,140.875,-1.3125,0.0712890625,0.7041015625,0.24755859375
1969/12/31/18:00:26.294,16,1730346250,822485163,RU_myo,0.47644653805074,0.17419656925401125,0.28754030755278454,0.8123883450493657,-56.25,126.0625,-0.375,0.09326171875,0.4765625,0.33203125
1969/12/31/18:00:26.309,17,1730346250,838180792,RU_myo,0.4685899732496634,0.15595250510002476,0.29261695086086836,0.8188269494782121,-28.625,119.6875,17.5625,0.119140625,0.283203125,0.3837890625
1969/12/31/18:00:26.333,18,1730346250,861362458,RU_myo,0.45632912494047145,0.14686033635724643,0.3052570831764711,0.8228085345368586,41.4375,102.3125,40.875,0.0751953125,0.17041015625,0.4052734375
1969/12/31/18:00:26.353,19,1730346250,882261134,RU_myo,0.4404411943794995,0.14709856963062554,0.3269738744860004,0.8230805856717781,114.0625,83.3125,57.75,-0.0322265625,0.37451171875,0.26416015625
1969/12/31/18:00:26.369,20,1730346250,898241069,RU_myo,0.4253753440855574,0.15424357791709048,0.3535333610193067,0.8187056235068993,160.5,57.1875,51.375,-0.072265625,0.525390625,0.2333984375
1969/12/31/18:00:26.393,21,1730346250,921442966,RU_myo,0.41151898930807845,0.16663406122976182,0.38356353141678506,0.8097927070825092,196.375,35.125,41.6875,-0.029296875,0.7314453125,0.23681640625
1969/12/31/18:00:26.413,22,1730346250,942334593,RU_myo,0.39908040471896483,0.17921383729808515,0.40933514745264277,0.8006634549860296,175.0,21.125,38.5625,0.0029296875,1.021484375,0.296875
1969/12/31/18:00:26.436,23,1730346250,964852444,RU_myo,0.38979718249085227,0.1887946579148459,0.42556623180805225,0.794549001641626,98.0625,9.25,32.0,-0.00439453125,1.20556640625,0.45361328125
1969/12/31/18:00:26.453,24,1730346250,981328952,RU_myo,0.3861982705479,0.1936179728430439,0.42904814978365563,0.7932721232875785,17.125,-6.25,19.875,-0.01025390625,1.1806640625,0.513671875
1969/12/31/18:00:26.473,25,1730346251,2390533,RU_myo,0.3878308029053365,0.1941595505259483,0.42109611413974135,0.7965973888444361,-51.375,-19.5625,8.5625,0.00634765625,0.95556640625,0.544921875
1969/12/31/18:00:26.489,26,1730346251,18071184,RU_myo,0.3916739795255291,0.19324292023964862,0.4082760244734711,0.8015980011078033,-79.5625,-26.5,3.6875,0.0234375,0.8251953125,0.564453125
1969/12/31/18:00:26.512,27,1730346251,41169945,RU_myo,0.3955875733959432,0.1924529577098301,0.39625899189730956,0.8058853157763675,-69.1875,-26.4375,1.125,0.03125,0.77197265625,0.63525390625
1969/12/31/18:00:26.534,28,1730346251,62555926,RU_myo,0.3993158787743922,0.1918449720250557,0.38747435011614817,0.8084590055589764,-46.6875,-21.1875,-5.375,0.0400390625,0.7216796875,0.67529296875
1969/12/31/18:00:26.550,29,1730346251,78328015,RU_myo,0.4016347736112028,0.19190573377410663,0.38246861572154967,0.8096786127587545,-22.75,-13.125,-4.875,0.05078125,0.67041015625,0.6474609375
1969/12/31/18:00:26.573,30,1730346251,101416853,RU_myo,0.4020081256490087,0.19349616737129632,0.3825364293110139,0.809082554733922,2.1875,-8.25,-0.375,0.01513671875,0.734375,0.55517578125
1969/12/31/18:00:26.595,31,1730346251,123844448,RU_myo,0.40175703590932077,0.1958733406613507,0.3850934578474483,0.8074205516573223,19.125,-7.25,0.9375,-0.013671875,0.76513671875,0.57275390625
1969/12/31/18:00:26.616,32,1730346251,145033830,RU_myo,0.40132582550984924,0.19825190589444722,0.3875312039790164,0.8058866728831239,25.375,-5.8125,0.1875,0.0205078125,0.77294921875,0.70166015625
1969/12/31/18:00:26.633,33,1730346251,161343769,RU_myo,0.40009740676511524,0.20142203544239212,0.38947697216906185,0.8047725870630121,28.75,-6.6875,5.125,0.06494140625,0.75341796875,0.7431640625
1969/12/31/18:00:26.655,34,1730346251,183819302,RU_myo,0.3980274499358618,0.20319481380715904,0.39027565019013966,0.8049664176896405,16.9375,1.375,9.0625,0.08203125,0.736328125,0.69921875
1969/12/31/18:00:26.676,35,1730346251,204898754,RU_myo,0.3960672758130221,0.20288605714324015,0.3906960444566427,0.8058067768968281,5.5625,8.125,9.0,0.02880859375,0.77294921875,0.671875
1969/12/31/18:00:26.692,36,1730346251,221391144,RU_myo,0.3943040064579693,0.20215710052458116,0.39119108009119585,0.8066141556257066,3.125,8.3125,9.125,-0.00390625,0.794921875,0.6513671875
1969/12/31/18:00:26.715,37,1730346251,243973675,RU_myo,0.3923552868559436,0.20167110575171712,0.39174490215330526,0.8074168846500346,2.1875,8.9375,9.0,0.01953125,0.80615234375,0.6328125
1969/12/31/18:00:26.730,38,1730346251,258380929,RU_myo,0.39114107450228647,0.20106409166831016,0.392361864372768,0.8078576967911613,2.375,7.75,3.75,0.03173828125,0.81640625,0.640625
1969/12/31/18:00:26.753,39,1730346251,281385684,RU_myo,0.3901563720116701,0.20038851209548073,0.39284205417195067,0.8082682537826243,0.25,9.375,0.4375,0.06884765625,0.83642578125,0.6328125
1969/12/31/18:00:26.775,40,1730346251,303864776,RU_myo,0.38875692910875426,0.19929209821637348,0.3937621211619679,0.8087657890863548,2.5,13.5625,0.0625,0.08203125,0.794921875,0.6162109375
1969/12/31/18:00:26.789,41,1730346251,318063340,RU_myo,0.38735069079394535,0.19868050717527452,0.3957129732772057,0.8086388199871081,9.4375,12.0,0.1875,0.06103515625,0.78125,0.5986328125
1969/12/31/18:00:26.820,42,1730346251,348813538,RU_myo,0.3858898988400027,0.1989878314170213,0.3991964470758648,0.8075487759653963,21.25,10.125,-1.125,0.0498046875,0.77587890625,0.58984375
1969/12/31/18:00:26.835,43,1730346251,363802772,RU_myo,0.38458880772470183,0.19952718813712905,0.4034489793779208,0.805921380288361,27.625,10.0625,-3.8125,0.05908203125,0.75244140625,0.5859375
1969/12/31/18:00:26.856,44,1730346251,384904629,RU_myo,0.3830237887098813,0.2002710837859953,0.40762276669395814,0.8043804761145523,26.5,9.1875,-1.5,0.0478515625,0.75244140625,0.5517578125
1969/12/31/18:00:26.873,45,1730346251,401358721,RU_myo,0.38124876603352714,0.20100099048165304,0.41121884994682556,0.8032104566498853,20.6875,6.8125,3.6875,0.00146484375,0.79052734375,0.52490234375
1969/12/31/18:00:26.895,46,1730346251,423807868,RU_myo,0.37971665660488085,0.20136396883772736,0.41414202138950595,0.8023429434288954,18.8125,6.75,3.25,-0.0087890625,0.81396484375,0.58251953125
1969/12/31/18:00:26.916,47,1730346251,444831587,RU_myo,0.3790508901728319,0.20124489289852282,0.4171390955621792,0.8011341277807437,17.5625,7.4375,-3.3125,0.01171875,0.8056640625,0.568359375
1969/12/31/18:00:26.932,48,1730346251,461361733,RU_myo,0.3783679661499247,0.2012998148673095,0.41999515648937435,0.7999500829748205,16.1875,5.9375,-2.4375,-0.0009765625,0.8125,0.546875
1969/12/31/18:00:26.955,49,1730346251,483800709,RU_myo,0.37777181593659986,0.20173466661342102,0.4226966917694222,0.7986983699354353,14.125,3.0,-0.875,-0.017578125,0.84765625,0.52880859375
1969/12/31/18:00:26.976,50,1730346251,504820393,RU_myo,0.37800787549240467,0.20160826945768004,0.4247629267805012,0.7975215406400386,11.6875,3.0,-5.9375,-0.0078125,0.8349609375,0.55810546875
1969/12/31/18:00:26.992,51,1730346251,521234006,RU_myo,0.378262178263336,0.20204095692296956,0.42703278991936405,0.7960779940149151,15.3125,1.75,-7.8125,0.03125,0.814453125,0.55859375
1969/12/31/18:00:27.015,52,1730346251,543823833,RU_myo,0.3780708065161037,0.20270796713593484,0.42952603575295795,0.794656737170351,16.0,2.5625,-5.625,0.03173828125,0.83642578125,0.5390625
1969/12/31/18:00:27.036,53,1730346251,564887439,RU_myo,0.37844518626871504,0.20246817465376254,0.4313054332539904,0.7935751397870265,10.3125,3.0625,-7.5625,0.01123046875,0.84228515625,0.55908203125
1969/12/31/18:00:27.052,54,1730346251,581126738,RU_myo,0.3787965625307218,0.20227712024279923,0.4329365159572042,0.7925674129006481,11.75,2.625,-6.375,-0.005859375,0.7734375,0.54541015625
1969/12/31/18:00:27.075,55,1730346251,603975300,RU_myo,0.378384645085553,0.2030788375866486,0.43509045816580444,0.791378758434295,18.5,0.875,-1.375,0.00048828125,0.7373046875,0.5302734375
1969/12/31/18:00:27.096,56,1730346251,624942600,RU_myo,0.37716260540044516,0.20423791514320916,0.43771371473160575,0.7902163925415379,21.625,2.625,2.0,0.0048828125,0.77783203125,0.54150390625
1969/12/31/18:00:27.113,57,1730346251,641360992,RU_myo,0.3760626214221156,0.20435930149671205,0.4405810747321588,0.7891150088857507,19.375,6.6875,-0.125,-0.01513671875,0.80517578125,0.5361328125
1969/12/31/18:00:27.135,58,1730346251,663937679,RU_myo,0.3752773624772596,0.20442483522061522,0.4426051000850048,0.78833883155397,10.5625,4.625,0.5625,-0.02734375,0.8232421875,0.478515625
1969/12/31/18:00:27.156,59,1730346251,684937123,RU_myo,0.3748944049292243,0.20465987296119978,0.4433178220450922,0.7880595346859679,0.6875,-1.0,4.1875,-0.0654296875,0.86083984375,0.45654296875
1969/12/31/18:00:27.180,60,1730346251,708762353,RU_myo,0.3751436940509739,0.20502890795919645,0.44356804827016394,0.7877040956276958,-2.875,-4.4375,2.5,-0.0732421875,0.9462890625,0.490234375
1969/12/31/18:00:27.195,61,1730346251,723822597,RU_myo,0.3766688715251333,0.20417393862446456,0.4433229644931199,0.7873362135476737,-5.1875,-2.1875,-7.8125,-0.03955078125,0.90087890625,0.53076171875
1969/12/31/18:00:27.216,62,1730346251,744921308,RU_myo,0.37824313035867196,0.20361773162441985,0.4433690655035329,0.7866993234134134,1.625,-2.5625,-9.25,-0.02783203125,0.77783203125,0.52978515625
1969/12/31/18:00:27.232,63,1730346251,761315887,RU_myo,0.37869155681209815,0.20478887380796088,0.4452860907389194,0.7850952294837534,14.8125,-5.3125,-2.875,-0.04736328125,0.83349609375,0.50537109375
1969/12/31/18:00:27.255,64,1730346251,783752240,RU_myo,0.3788585672327748,0.20563468873968394,0.44813591116852464,0.7831696916648515,19.4375,-1.375,-4.1875,-0.048828125,0.919921875,0.55615234375
1969/12/31/18:00:27.276,65,1730346251,804904927,RU_myo,0.37964788967803065,0.20483895783914324,0.4496569137070823,0.7821234820473126,10.375,3.5625,-9.5625,-0.02587890625,0.89404296875,0.591796875
1969/12/31/18:00:27.292,66,1730346251,821249265,RU_myo,0.3804616183079126,0.20362906444331724,0.4507185287318509,0.7814326387899723,3.125,4.75,-9.5,-0.02587890625,0.90576171875,0.5390625
1969/12/31/18:00:27.315,67,1730346251,843891193,RU_myo,0.38215507302437324,0.2003247004737251,0.4508221321447086,0.7814006140964743,-9.875,9.625,-15.0625,-0.06201171875,1.0048828125,0.5810546875
1969/12/31/18:00:27.336,68,1730346251,864876038,RU_myo,0.3853952370818653,0.19416253550164925,0.44936327769982454,0.7822046188159809,-25.6875,16.625,-26.625,-0.05712890625,1.00341796875,0.61767578125
1969/12/31/18:00:27.352,69,1730346251,880667687,RU_myo,0.3884473362794359,0.1860445444657009,0.4460063931794214,0.7845854903419027,-35.875,24.75,-26.1875,-0.0458984375,0.89404296875,0.66943359375
1969/12/31/18:00:27.375,70,1730346251,903923652,RU_myo,0.39033655710159715,0.17816925882401283,0.4443549860359073,0.7864106648470646,-20.4375,30.625,-24.375,-0.0400390625,0.8056640625,0.71337890625
1969/12/31/18:00:27.396,71,1730346251,924885445,RU_myo,0.3916222087583648,0.16993083372557477,0.4468619373940132,0.7861742594775154,-5.0,40.0,-30.9375,-0.07373046875,0.90478515625,0.63623046875
1969/12/31/18:00:27.412,72,1730346251,940728936,RU_myo,0.3936482800172654,0.159253894024662,0.4503546301701634,0.7854043136892779,-8.75,49.375,-40.625,-0.1279296875,0.9072265625,0.58154296875
1969/12/31/18:00:27.435,73,1730346251,963865141,RU_myo,0.39601731695149195,0.14814026329242772,0.4532713618498427,0.7847100226153484,-9.6875,49.875,-43.3125,-0.1298828125,0.81201171875,0.57763671875
1969/12/31/18:00:27.456,74,1730346251,984895551,RU_myo,0.3974140419450735,0.13867680898467316,0.45600987672732973,0.7841465515079649,-8.375,48.0625,-39.3125,-0.064453125,0.83203125,0.5625
1969/12/31/18:00:27.472,75,1730346252,533791,RU_myo,0.3983518236399478,0.12806345786034484,0.45811070125924125,0.784251337745334,-18.125,53.8125,-39.8125,-0.0625,0.8671875,0.537109375
1969/12/31/18:00:27.495,76,1730346252,23870615,RU_myo,0.3999888860735066,0.11536380202638905,0.4592578023526726,0.7847180099742104,-26.0,56.5,-41.625,-0.1513671875,0.75341796875,0.51513671875
1969/12/31/18:00:27.516,77,1730346252,44651315,RU_myo,0.40053511563250016,0.10486426831097764,0.4615126499995937,0.7845898165711913,-10.0,50.8125,-30.5,-0.17578125,0.5810546875,0.470703125
1969/12/31/18:00:27.540,78,1730346252,68624439,RU_myo,0.39882685209974084,0.09802814883259622,0.4666408454702355,0.7833096101922213,14.75,47.6875,-17.6875,-0.138671875,0.5927734375,0.45263671875
1969/12/31/18:00:27.555,79,1730346252,83830723,RU_myo,0.39602788962304386,0.09259776642388372,0.47544100374135156,0.7800919280799169,34.8125,50.5625,-15.6875,-0.17578125,0.7109375,0.41552734375
1969/12/31/18:00:27.578,80,1730346252,106281786,RU_myo,0.3935029829896311,0.08777063588321538,0.4851189248955464,0.7759583407394416,42.3125,46.5625,-14.875,-0.24560546875,0.72705078125,0.4130859375
1969/12/31/18:00:27.598,81,1730346252,127303394,RU_myo,0.3910783979742401,0.08490558008149961,0.49350223936658827,0.7722074001517264,41.5,35.375,-8.6875,-0.23486328125,0.69677734375,0.40283203125
1969/12/31/18:00:27.615,82,1730346252,143876274,RU_myo,0.38778710916053766,0.08264815768981079,0.498635746062086,0.7708130984541586,21.9375,30.4375,1.25,-0.2158203125,0.77001953125,0.42919921875
1969/12/31/18:00:27.637,83,1730346252,166324782,RU_myo,0.38515968056902494,0.07922936059882636,0.501134861722931,0.7708687172593052,-0.0625,27.625,-0.5,-0.2451171875,0.837890625,0.4111328125
1969/12/31/18:00:27.658,84,1730346252,187453147,RU_myo,0.38381797767995685,0.07507889830571675,0.5010143067425391,0.7720308176997606,-16.1875,20.0625,-1.75,-0.2939453125,0.8212890625,0.4140625
1969/12/31/18:00:27.675,85,1730346252,204309636,RU_myo,0.38240776791820535,0.07251403484227102,0.49966320641315703,0.7738492708167609,-17.6875,11.6875,5.0625,-0.2763671875,0.75146484375,0.41943359375
1969/12/31/18:00:27.698,86,1730346252,226399882,RU_myo,0.38027618350539727,0.07080583834129388,0.4982045280531385,0.775995364511094,-13.6875,9.8125,13.25,-0.2822265625,0.68994140625,0.44189453125
1969/12/31/18:00:27.719,87,1730346252,247440296,RU_myo,0.37776100541076985,0.07031518472018208,0.49794381679448385,0.7774344685598604,-3.25,8.375,15.9375,-0.2705078125,0.67333984375,0.43994140625
1969/12/31/18:00:27.735,88,1730346252,263973925,RU_myo,0.37435193539570855,0.07196493263191593,0.5001532298438669,0.7775142594277736,16.5,6.5625,21.125,-0.26025390625,0.724609375,0.45751953125
1969/12/31/18:00:27.758,89,1730346252,286411287,RU_myo,0.369953862967994,0.07550452540693096,0.5035669641125146,0.7770801236504754,26.3125,4.125,27.0625,-0.2392578125,0.79345703125,0.4619140625
1969/12/31/18:00:27.779,90,1730346252,307386421,RU_myo,0.3656178017519692,0.07825075489916937,0.5061273476005557,0.7771972403518904,14.4375,4.9375,25.8125,-0.25146484375,0.8779296875,0.4287109375
1969/12/31/18:00:27.801,91,1730346252,329990461,RU_myo,0.3619483372727284,0.07934786483213271,0.506178340809905,0.7787687749178317,-0.1875,5.5,24.8125,-0.2607421875,0.8076171875,0.4541015625
1969/12/31/18:00:27.818,92,1730346252,346291684,RU_myo,0.35780754601365683,0.08160844234395413,0.5061920810459324,0.7804379534852637,3.3125,2.625,29.0625,-0.2255859375,0.75927734375,0.4521484375
1969/12/31/18:00:27.839,93,1730346252,367486870,RU_myo,0.35293291508868524,0.08429615284287,0.5077301950376486,0.781372232108312,9.5625,5.375,30.5,-0.22119140625,0.8623046875,0.4345703125
1969/12/31/18:00:27.855,94,1730346252,383770576,RU_myo,0.34908091092500676,0.08551536216225467,0.5083311463863361,0.7825784855690701,2.3125,6.0,24.8125,-0.25927734375,0.87109375,0.4560546875
1969/12/31/18:00:27.878,95,1730346252,406405536,RU_myo,0.34578404519295586,0.08759048629336129,0.5086352071655607,0.7836143993269492,4.8125,-0.0625,25.6875,-0.2373046875,0.75439453125,0.42041015625
1969/12/31/18:00:27.899,96,1730346252,427647202,RU_myo,0.34150961448914063,0.09155753739655245,0.5085716010587167,0.7850753639963051,6.9375,-4.0,33.25,-0.1728515625,0.77490234375,0.44921875
1969/12/31/18:00:27.915,97,1730346252,444050519,RU_myo,0.3366780631383159,0.09546129273900038,0.5083741094777072,0.7868232255105203,0.8125,-1.75,32.6875,-0.15380859375,0.9521484375,0.455078125
1969/12/31/18:00:27.937,98,1730346252,466425066,RU_myo,0.33289970282664083,0.0975993078144112,0.5065520047228259,0.7893397427491968,-12.375,-0.75,27.8125,-0.1748046875,0.93017578125,0.45361328125
1969/12/31/18:00:27.959,99,1730346252,487450066,RU_myo,0.3299119957785566,0.10004176893266499,0.504298410568443,0.7917277515714445,-10.5,-5.0625,25.6875,-0.154296875,0.8193359375,0.45361328125
1969/12/31/18:00:27.974,100,1730346252,503199239,RU_myo,0.32637016220322224,0.103459402456417,0.503136197314599,0.7934939421436111,-0.625,-5.1875,28.25,-0.1240234375,0.80322265625,0.4541015625
1969/12/31/18:00:27.997,101,1730346252,526275900,RU_myo,0.32233601989069877,0.10699773582056334,0.5031884393067451,0.7946397733302418,4.875,-3.0625,29.4375,-0.1279296875,0.84130859375,0.443359375
1969/12/31/18:00:28.018,102,1730346252,547343260,RU_myo,0.31856347105558563,0.11084714762156418,0.5039394552663182,0.7951573744857471,10.5625,-5.125,28.1875,-0.134765625,0.84326171875,0.43798828125
1969/12/31/18:00:28.035,103,1730346252,563818987,RU_myo,0.31465146491960994,0.115545145119849,0.5047851823249611,0.7955097075261447,12.875,-7.0625,28.5625,-0.09130859375,0.90478515625,0.46142578125
1969/12/31/18:00:28.057,104,1730346252,586381984,RU_myo,0.3109833904176549,0.1195103981232126,0.5047147508073774,0.7964104569518274,2.6875,-5.5,26.0,-0.07177734375,0.96142578125,0.443359375
1969/12/31/18:00:28.079,105,1730346252,607516826,RU_myo,0.3082360708180893,0.12207369141310467,0.502699461239165,0.7983619418417045,-10.125,-4.9375,22.0625,-0.076171875,0.89306640625,0.4453125
1969/12/31/18:00:28.095,106,1730346252,624043479,RU_myo,0.30616258601103313,0.12476003305553264,0.5003829505818281,0.8001976679833821,-9.25,-8.1875,20.5,-0.0732421875,0.8291015625,0.4501953125
1969/12/31/18:00:28.117,107,1730346252,646241642,RU_myo,0.3037827226636583,0.12830043862547916,0.4989800598303007,0.8014199615378407,-5.5625,-10.3125,21.875,-0.068359375,0.93359375,0.4404296875
1969/12/31/18:00:28.139,108,1730346252,667416353,RU_myo,0.3020787157527898,0.13123241844180603,0.49746242339568325,0.802532017522263,-10.375,-9.625,17.25,-0.06884765625,0.99609375,0.4306640625
1969/12/31/18:00:28.154,109,1730346252,683314355,RU_myo,0.3015845500877557,0.13318305773962413,0.494400901783206,0.8042865040490501,-15.6875,-11.25,12.1875,-0.07080078125,0.8662109375,0.4619140625
1969/12/31/18:00:28.178,110,1730346252,706456644,RU_myo,0.30036940291336783,0.13660368293438677,0.49209065764835835,0.8055832919428224,-3.9375,-13.3125,16.375,-0.015625,0.75830078125,0.474609375
1969/12/31/18:00:28.199,111,1730346252,727519759,RU_myo,0.2982891991799189,0.14062989869255846,0.492143608141536,0.8056310906436975,8.625,-10.375,16.6875,0.0,0.89013671875,0.48046875
1969/12/31/18:00:28.214,112,1730346252,743221138,RU_myo,0.2966467212297971,0.14301301807436514,0.49282420312950237,0.8054019519808997,5.375,-5.1875,12.25,-0.0517578125,0.98828125,0.4736328125
1969/12/31/18:00:28.238,113,1730346252,766468237,RU_myo,0.2961008284217588,0.1445406641316687,0.4917922850121852,0.8059606964504026,-5.6875,-6.875,7.875,-0.05126953125,0.92236328125,0.46044921875
1969/12/31/18:00:28.259,114,1730346252,787366273,RU_myo,0.29560768425644024,0.14655256037574085,0.48970895122639274,0.8070462112819848,-6.6875,-8.9375,9.1875,-0.01513671875,0.81787109375,0.478515625
1969/12/31/18:00:28.274,115,1730346252,803067427,RU_myo,0.2946946402375975,0.14862913193424812,0.4886144563177233,0.8076635210488589,-2.625,-6.9375,9.625,-0.00732421875,0.87890625,0.4755859375
1969/12/31/18:00:28.297,116,1730346252,826254874,RU_myo,0.2938321710580449,0.1499679360801031,0.4883571251839254,0.8078858778820693,2.0625,-4.1875,8.1875,-0.044921875,0.88134765625,0.49658203125
1969/12/31/18:00:28.318,117,1730346252,847240367,RU_myo,0.2931040533192806,0.1514350596178957,0.4881201820896057,0.8080198787673128,3.375,-4.875,7.6875,-0.03564453125,0.85693359375,0.49658203125
1969/12/31/18:00:28.335,118,1730346252,863731979,RU_myo,0.29182939177221595,0.15296474707826252,0.48807107647158304,0.8082227518209394,5.9375,-2.9375,9.875,-0.0224609375,0.8251953125,0.49755859375
1969/12/31/18:00:28.357,119,1730346252,886255825,RU_myo,0.2902447122788302,0.15455302029232346,0.4888074986180594,0.8080461621760576,7.6875,-0.875,9.4375,-0.01171875,0.87060546875,0.462890625
1969/12/31/18:00:28.378,120,1730346252,907322635,RU_myo,0.2890279725824585,0.1557149647429465,0.4892416473597476,0.8079964673862732,2.75,-1.75,8.3125,-0.033203125,0.8564453125,0.419921875
1969/12/31/18:00:28.395,121,1730346252,923826901,RU_myo,0.28791811078172547,0.15754009835226487,0.4891617001918058,0.8080873158022607,1.9375,-5.3125,10.5,-0.02734375,0.8583984375,0.43994140625
1969/12/31/18:00:28.417,122,1730346252,946240998,RU_myo,0.28645684144023603,0.15894600790760166,0.488740662563812,0.8085859319324114,1.875,-2.0,11.0,-0.00732421875,0.8720703125,0.4912109375
1969/12/31/18:00:28.438,123,1730346252,967392987,RU_myo,0.2857150235026988,0.1596122167185553,0.4876870407576508,0.8093529612573779,-6.8125,-2.4375,7.375,-0.02099609375,0.9404296875,0.47900390625
1969/12/31/18:00:28.454,124,1730346252,983157160,RU_myo,0.2865122070049685,0.16016361976587928,0.48549597241532155,0.8102789833811157,-17.75,-8.875,3.8125,-0.05859375,0.92236328125,0.41552734375
1969/12/31/18:00:28.477,125,1730346253,6244669,RU_myo,0.2877952432191127,0.16187337964307252,0.4829344569140233,0.81101493036105,-14.9375,-15.375,2.8125,-0.02392578125,0.841796875,0.41845703125
1969/12/31/18:00:28.500,126,1730346253,28684453,RU_myo,0.2879757164315387,0.16455755224659355,0.4821365375355498,0.8108854160222534,2.5,-12.8125,4.25,0.0361328125,0.78662109375,0.4599609375
1969/12/31/18:00:28.521,127,1730346253,49825419,RU_myo,0.2866300413531077,0.16821814181626168,0.4841459727454962,0.8094124741021212,18.75,-10.0,9.1875,0.03857421875,0.77734375,0.388671875
1969/12/31/18:00:28.537,128,1730346253,66297551,RU_myo,0.28492263142093555,0.17267483382387033,0.4859188236379751,0.8080132379499453,18.375,-10.3125,8.4375,0.1259765625,0.9423828125,0.4541015625
1969/12/31/18:00:28.560,129,1730346253,88767260,RU_myo,0.2832746825528149,0.17609296685302112,0.49269408264734366,0.803740792901415,61.1875,0.3125,-5.5,0.15087890625,1.13671875,0.748046875
1969/12/31/18:00:28.581,130,1730346253,110028196,RU_myo,0.28352074147135525,0.17487339597748824,0.4917818329461161,0.804478659330993,1.125,4.9375,-4.5,0.03271484375,0.9111328125,0.62060546875
1969/12/31/18:00:28.598,131,1730346253,126451859,RU_myo,0.2841382193410349,0.1711543645611733,0.48727720837797667,0.8077948860922138,-40.9375,10.3125,-1.0625,-0.03515625,0.89990234375,0.4072265625
1969/12/31/18:00:28.620,132,1730346253,149048481,RU_myo,0.2849317156237672,0.16779719071331106,0.4854460013615725,0.80932082636151,-13.5,10.25,-5.6875,-0.05712890625,0.8115234375,0.52294921875
1969/12/31/18:00:28.641,133,1730346253,169954015,RU_myo,0.28377339148853226,0.1650512477059564,0.4847159608110206,0.8107287988278523,-0.5,16.0,1.0,-0.01171875,0.68603515625,0.53564453125
1969/12/31/18:00:28.657,134,1730346253,186204467,RU_myo,0.28114417969439565,0.16352263512837295,0.48678350696109535,0.8107158043206606,10.5,18.125,5.1875,0.00244140625,0.7919921875,0.4375
1969/12/31/18:00:28.680,135,1730346253,208796844,RU_myo,0.2784483655102583,0.162112858131356,0.4900617989219343,0.8099539259800806,13.125,18.25,5.125,-0.02099609375,0.8603515625,0.38134765625
1969/12/31/18:00:28.701,136,1730346253,229800419,RU_myo,0.27619344312895067,0.1619317579273163,0.49348596413205886,0.8086821940365675,12.75,11.375,4.0625,-0.0048828125,0.91064453125,0.33740234375
1969/12/31/18:00:28.717,137,1730346253,246203225,RU_myo,0.27492197306895416,0.16260926648661053,0.4955187782801443,0.8077358946761701,1.9375,3.3125,2.875,0.015625,0.99072265625,0.31298828125
1969/12/31/18:00:28.740,138,1730346253,268866698,RU_myo,0.27577405158440843,0.1627909242088573,0.49350004583000046,0.8086442309407355,-29.5,-5.875,0.125,-0.013671875,0.95458984375,0.2216796875
1969/12/31/18:00:28.762,139,1730346253,291246780,RU_myo,0.27974514428889874,0.16352547273619022,0.4862425964227291,0.8115233893346954,-67.3125,-24.1875,-3.5,-0.03173828125,0.93212890625,0.12744140625
1969/12/31/18:00:28.777,140,1730346253,306241867,RU_myo,0.28657496926723397,0.16584114834911068,0.47609899047591586,0.8146786187028268,-81.9375,-42.6875,-11.75,0.01123046875,0.99462890625,0.18359375
1969/12/31/18:00:28.800,141,1730346253,328718685,RU_myo,0.29572714932504146,0.16791442472511645,0.4629091229063188,0.8185751908355277,-92.0625,-50.75,-21.6875,0.05322265625,0.93505859375,0.3203125
1969/12/31/18:00:28.821,142,1730346253,349799229,RU_myo,0.30953211469544095,0.1691408972236377,0.44174401775801736,0.8248899621364995,-133.0,-72.0625,-30.875,0.0234375,0.9833984375,0.24853515625
1969/12/31/18:00:28.837,143,1730346253,366254352,RU_myo,0.32765048122690404,0.17011212577857332,0.4121266857757183,0.8329817655185469,-184.875,-94.75,-40.4375,0.0244140625,0.98388671875,0.1298828125
1969/12/31/18:00:28.860,144,1730346253,388770913,RU_myo,0.3495606368748675,0.17127067348889088,0.3751352670216406,0.8412771534915835,-223.0,-117.9375,-51.0625,0.08544921875,0.763671875,0.09375
1969/12/31/18:00:28.881,145,1730346253,409856477,RU_myo,0.37240586211547266,0.17347606296216575,0.3361480220734155,0.847481230882023,-223.0,-129.4375,-57.3125,0.216796875,0.5068359375,0.23095703125
1969/12/31/18:00:28.898,146,1730346253,426344331,RU_myo,0.3952801962548434,0.1795729365938464,0.3007327867429916,0.8491565920780391,-186.3125,-144.4375,-63.3125,0.28076171875,0.396484375,0.31298828125
1969/12/31/18:00:28.920,147,1730346253,448652589,RU_myo,0.4162831736910691,0.19056247335242196,0.2710113330188192,0.8467272999182567,-136.875,-156.3125,-61.125,0.30029296875,0.2880859375,0.40380859375
1969/12/31/18:00:28.941,148,1730346253,470034640,RU_myo,0.43490387897724103,0.2074110008090758,0.24775787294998194,0.8405089703181206,-81.4375,-169.4375,-56.5625,0.349609375,0.2421875,0.48876953125
1969/12/31/18:00:28.958,149,1730346253,486357473,RU_myo,0.4507741790556903,0.22993450677085786,0.23085009413522284,0.8310481310552773,-28.9375,-179.8125,-51.8125,0.45361328125,0.236328125,0.49169921875
1969/12/31/18:00:28.980,150,1730346253,508891695,RU_myo,0.46328779324570935,0.2569141398908025,0.21784902952489285,0.8196958860996879,8.125,-188.625,-40.6875,0.53173828125,0.26611328125,0.513671875
1969/12/31/18:00:29.001,151,1730346253,529982098,RU_myo,0.47245006735425404,0.2881090850015606,0.20643748421086397,0.8069495982458964,32.875,-202.625,-25.125,0.54052734375,0.3369140625,0.52294921875
1969/12/31/18:00:29.017,152,1730346253,546317008,RU_myo,0.4784911087981889,0.3227785410543211,0.19209229740884048,0.7937007128081197,32.375,-224.5625,-2.0625,0.54296875,0.53466796875,0.54150390625
1969/12/31/18:00:29.040,153,1730346253,568801396,RU_myo,0.48495899468008935,0.356959119054646,0.17072754035496662,0.7799019603558844,-2.625,-243.375,8.0,0.5888671875,0.63916015625,0.4892578125
1969/12/31/18:00:29.061,154,1730346253,589848586,RU_myo,0.49348039172355435,0.3899624270527877,0.14099439763530125,0.7645436470908153,-45.9375,-265.375,9.625,0.67041015625,0.55419921875,0.37841796875
1969/12/31/18:00:29.068,155,1730346253,596625096,RU_myo,0.5008926881975185,0.42733971607004956,0.10279104154577397,0.7456012900722262,-64.5,-314.4375,24.875,0.87255859375,0.48095703125,0.33447265625
1969/12/31/18:00:29.086,156,1730346253,614540491,RU_myo,0.5079551805037583,0.4665716654374824,0.06360121342044174,0.721281707283455,-58.4375,-339.6875,14.9375,1.02294921875,0.55517578125,0.4658203125
1969/12/31/18:00:29.105,157,1730346253,634110816,RU_myo,0.5139460421884778,0.504973350003002,0.028627160782232316,0.6928505373968422,-37.0625,-336.5,-4.75,1.07958984375,0.4970703125,0.5478515625
1969/12/31/18:00:29.128,158,1730346253,656756913,RU_myo,0.5168085927912319,0.5437263428114202,-0.007263519846717445,0.6612244579789083,-28.3125,-352.25,1.1875,1.0048828125,0.3837890625,0.58056640625
1969/12/31/18:00:29.143,159,1730346253,671586388,RU_myo,0.5147311085207713,0.5828492061265084,-0.040284896433500424,0.6274677808127036,-1.25,-352.3125,3.25,1.1611328125,0.38525390625,0.501953125
1969/12/31/18:00:29.173,160,1730346253,701738151,RU_myo,0.5087003927097273,0.6197306320112624,-0.06708204122726065,0.5938500264786342,27.75,-327.125,-2.8125,1.26416015625,0.38671875,0.451171875
1969/12/31/18:00:29.188,161,1730346253,716708569,RU_myo,0.5015391081366336,0.6507129648101072,-0.09240966407677538,0.5625758743696425,21.9375,-298.375,6.0625,1.2529296875,0.46044921875,0.5439453125
1969/12/31/18:00:29.203,162,1730346253,731761712,RU_myo,0.49520992103663364,0.6773504861017532,-0.11395993129241896,0.5319554371791276,17.1875,-269.6875,-2.8125,1.09228515625,0.6162109375,0.34521484375
1969/12/31/18:00:29.236,163,1730346253,764533032,RU_myo,0.4906198374932208,0.6982695870766915,-0.1321462986032375,0.5042312114371109,7.6875,-231.6875,-9.1875,1.201171875,0.69287109375,0.3896484375
1969/12/31/18:00:29.251,164,1730346253,779800188,RU_myo,0.49068502025069943,0.7106051754893199,-0.14887184530307948,0.48177346247527936,-25.8125,-180.625,-8.375,1.3515625,0.71630859375,0.46142578125
1969/12/31/18:00:29.264,165,1730346253,793266004,RU_myo,0.4976452704856731,0.7145143549988089,-0.16828259667962722,0.46205994082871893,-81.9375,-149.125,-1.125,1.2060546875,0.62109375,0.53564453125
1969/12/31/18:00:29.285,166,1730346253,814305964,RU_myo,0.5076591861843458,0.7150688188228461,-0.18683957784180383,0.4427750074042617,-103.5625,-129.1875,-7.25,1.00830078125,0.59375,0.26318359375
1969/12/31/18:00:29.308,167,1730346253,836683411,RU_myo,0.5144978232132124,0.7162317543698936,-0.19935340973002152,0.4272730765799604,-69.3125,-101.3125,-15.5625,0.970703125,0.4501953125,0.26953125
1969/12/31/18:00:29.323,168,1730346253,851686128,RU_myo,0.5159618540494908,0.7162304975058235,-0.20625045603137698,0.4222060977712443,-13.875,-64.6875,-9.75,1.02294921875,0.369140625,0.29638671875
1969/12/31/18:00:29.345,169,1730346253,874264261,RU_myo,0.515536985560422,0.715379288511502,-0.2093644163476495,0.42263534075543,9.8125,-35.25,-3.0,0.990234375,0.3427734375,0.3759765625
1969/12/31/18:00:29.368,170,1730346253,896705871,RU_myo,0.5137472528057366,0.7171220711909944,-0.2079525829047338,0.42255818357777286,24.25,-14.8125,-1.1875,0.7578125,0.560546875,0.10107421875
1969/12/31/18:00:29.383,171,1730346253,911686150,RU_myo,0.508191235291008,0.7226740602745056,-0.20294689614972392,0.42225161731241806,51.6875,-5.5625,-6.4375,0.74560546875,0.65869140625,-0.13232421875
1969/12/31/18:00:29.405,172,1730346253,934190528,RU_myo,0.503005387550397,0.7265226462822928,-0.19733241329334225,0.42451188817049035,52.5,4.125,-11.0,0.92529296875,0.5986328125,-0.044921875
1969/12/31/18:00:29.428,173,1730346253,956613802,RU_myo,0.49447106143411074,0.730567107061458,-0.1923926411110131,0.42983152877657177,69.3125,7.375,-3.625,1.02197265625,0.44677734375,-0.01123046875
1969/12/31/18:00:29.443,174,1730346253,971687759,RU_myo,0.48506798649853683,0.7358726117058463,-0.1854330619079596,0.43452862663685465,77.875,13.125,-3.5625,0.93408203125,0.54638671875,-0.12353515625
1969/12/31/18:00:29.482,175,1730346254,10593645,RU_myo,0.48153259506892226,0.7380773405467623,-0.17872067921939463,0.4375238485808131,43.6875,18.5,-8.75,0.8134765625,0.6318359375,-0.09423828125
1969/12/31/18:00:29.488,176,1730346254,16617157,RU_myo,0.4771286197559293,0.7397721467880086,-0.17200312785879607,0.4421542435092685,46.75,26.3125,-8.5625,0.7724609375,0.4873046875,-0.09130859375
1969/12/31/18:00:29.504,177,1730346254,33036529,RU_myo,0.46908499394228076,0.7429061107705268,-0.16529371029221812,0.4480265264198231,61.0,31.375,-5.25,0.74609375,0.32080078125,-0.21142578125
1969/12/31/18:00:29.525,178,1730346254,54152039,RU_myo,0.45796307975090583,0.7486838779454366,-0.15833083151723973,0.45240868280870505,74.5625,26.25,2.0625,0.73046875,0.42431640625,-0.40185546875
1969/12/31/18:00:29.548,179,1730346254,76722543,RU_myo,0.45081667449403784,0.7539246633293197,-0.14880734530415168,0.454112653430225,63.4375,26.875,-9.9375,0.8330078125,0.77099609375,-0.43798828125
1969/12/31/18:00:29.564,180,1730346254,93150289,RU_myo,0.44794839348954324,0.7566720580583005,-0.13910265550656342,0.45545590846422834,43.875,28.1875,-22.75,0.8115234375,0.73095703125,-0.30322265625
1969/12/31/18:00:29.585,181,1730346254,114231029,RU_myo,0.4454585535091257,0.7573649947850414,-0.13562741927888153,0.45778831889811494,19.5,20.25,-5.25,0.7841796875,0.4912109375,-0.26708984375
1969/12/31/18:00:29.608,182,1730346254,136722517,RU_myo,0.4440611001652249,0.7571928450240021,-0.13660601266938466,0.4591378138065734,-1.8125,8.9375,3.75,0.7685546875,0.38330078125,-0.28369140625
1969/12/31/18:00:29.623,183,1730346254,151716566,RU_myo,0.4409977959870111,0.7585162090976592,-0.13696872722420111,0.45979742521386224,8.25,4.5,0.5625,0.77880859375,0.34814453125,-0.330078125
1969/12/31/18:00:29.645,184,1730346254,174206473,RU_myo,0.4363548565489524,0.7610726963643709,-0.13623500347143122,0.460220397031627,21.3125,2.4375,1.75,0.76318359375,0.390625,-0.33740234375
1969/12/31/18:00:29.668,185,1730346254,196735009,RU_myo,0.4331121340393759,0.7631343026908562,-0.13507287945731944,0.460212160464613,19.6875,-0.0625,4.9375,0.75,0.541015625,-0.2734375
1969/12/31/18:00:29.683,186,1730346254,211708781,RU_myo,0.43196383857638215,0.7640699917054051,-0.13403880027041618,0.4600411828953218,10.5,0.625,5.5625,0.7578125,0.64501953125,-0.2255859375
1969/12/31/18:00:29.705,187,1730346254,234157105,RU_myo,0.43172661858545713,0.7643874515121842,-0.13422406818456387,0.4596823362882903,0.5625,-0.1875,5.5625,0.794921875,0.611328125,-0.25
1969/12/31/18:00:29.729,188,1730346254,258088235,RU_myo,0.4320987968262684,0.7643369309024626,-0.1359960614958223,0.45889514826103767,-9.5,-4.0,4.5625,0.82177734375,0.53076171875,-0.265625
1969/12/31/18:00:29.743,189,1730346254,271682110,RU_myo,0.4328104589208664,0.7640560322622204,-0.13824787610432412,0.4580185705460698,-12.8125,-5.3125,2.9375,0.81103515625,0.47607421875,-0.25341796875
1969/12/31/18:00:29.765,190,1730346254,294161057,RU_myo,0.43282876427791295,0.7641493865456483,-0.1400238591529449,0.4573054720025559,-7.0,-6.0,2.5625,0.80419921875,0.4677734375,-0.23193359375
1969/12/31/18:00:29.791,191,1730346254,319586639,RU_myo,0.43213212428738507,0.7647151674006565,-0.14135847455502598,0.4566074042081819,-0.875,-7.8125,3.375,0.81201171875,0.48779296875,-0.2216796875
1969/12/31/18:00:29.803,192,1730346254,331656196,RU_myo,0.43149082834483465,0.7651347479562176,-0.14271121186451033,0.45608989523166,0.5,-8.0,4.9375,0.814453125,0.509765625,-0.19384765625
1969/12/31/18:00:29.825,193,1730346254,354163945,RU_myo,0.43128292218313374,0.7652738859796393,-0.14422891949034036,0.45557539359961935,-2.6875,-8.0625,5.25,0.81884765625,0.5205078125,-0.18798828125
1969/12/31/18:00:29.843,194,1730346254,372160133,RU_myo,0.43165947585812864,0.7651090964199155,-0.14642973452823113,0.454792810325073,-7.9375,-8.75,6.9375,0.826171875,0.52734375,-0.20263671875
1969/12/31/18:00:29.863,195,1730346254,391735887,RU_myo,0.43245823288769225,0.7645080263822648,-0.1485068285978483,0.4543710777157348,-9.5625,-6.4375,7.375,0.818359375,0.5390625,-0.18896484375
1969/12/31/18:00:29.885,196,1730346254,414200304,RU_myo,0.43294121930755763,0.7641934394093644,-0.14966472152010873,0.454060303176219,-4.875,-4.375,4.5,0.81201171875,0.54052734375,-0.1826171875
1969/12/31/18:00:29.903,197,1730346254,432138644,RU_myo,0.43299484304715585,0.7642413912874878,-0.15002837950520284,0.45380838145695007,-0.6875,-3.125,1.375,0.82470703125,0.53271484375,-0.1982421875
1969/12/31/18:00:29.923,198,1730346254,451673303,RU_myo,0.43252503165939243,0.7645182079500268,-0.1497295939402328,0.453888813917477,3.875,-0.25,0.0,0.81201171875,0.52490234375,-0.20458984375
1969/12/31/18:00:29.945,199,1730346254,474194440,RU_myo,0.43135887578298165,0.7652393131019161,-0.1488728311921172,0.4540651870595161,8.9375,0.0625,-1.0625,0.79150390625,0.50341796875,-0.21533203125
1969/12/31/18:00:29.963,200,1730346254,492188898,RU_myo,0.4298941422709112,0.7662773054194263,-0.14814043494128945,0.45394331053084863,9.4375,-0.5625,-1.3125,0.791015625,0.4892578125,-0.2431640625
1969/12/31/18:00:29.983,201,1730346254,511648731,RU_myo,0.4281265915039602,0.7674416360107345,-0.14740885635615397,0.4538849920763399,10.1875,-0.3125,-1.625,0.806640625,0.48486328125,-0.26318359375
1969/12/31/18:00:30.005,202,1730346254,534205781,RU_myo,0.4259186621074198,0.7688875589806775,-0.14648965162765945,0.45381273327151994,12.6875,-0.25,-1.5625,0.814453125,0.47802734375,-0.28369140625
1969/12/31/18:00:30.031,203,1730346254,559503940,RU_myo,0.42386034340863443,0.7702001459000791,-0.14588511243471144,0.4537088036515524,10.8125,-0.75,-1.25,0.810546875,0.47119140625,-0.2861328125
1969/12/31/18:00:30.044,204,1730346254,572997876,RU_myo,0.4223239618403947,0.7712188550156651,-0.14594256290799013,0.4533924539023633,6.3125,-2.125,1.1875,0.80810546875,0.48486328125,-0.28759765625
1969/12/31/18:00:30.076,205,1730346254,605140431,RU_myo,0.421282747937959,0.7720668615860973,-0.1461854797611434,0.4528392794772121,3.6875,-2.6875,1.9375,0.80810546875,0.513671875,-0.28955078125
1969/12/31/18:00:30.083,206,1730346254,612029175,RU_myo,0.4199530751456212,0.7730676884766413,-0.14619006031595388,0.4523651511488661,5.375,-2.5625,0.25,0.8291015625,0.5029296875,-0.29541015625
1969/12/31/18:00:30.103,207,1730346254,631699541,RU_myo,0.418597133244962,0.773837045097642,-0.1464296475145325,0.45222895307843736,5.375,-2.75,0.5625,0.8544921875,0.4833984375,-0.27978515625
1969/12/31/18:00:30.125,208,1730346254,654120840,RU_myo,0.41781378192478513,0.7742220613490102,-0.14734879029458456,0.4519957713883176,0.0,-3.3125,3.0625,0.83935546875,0.4853515625,-0.27490234375
1969/12/31/18:00:30.140,209,1730346254,669157665,RU_myo,0.41757527866785193,0.7742325441635776,-0.14869366742214404,0.4517577309488046,-4.125,-2.5,5.6875,0.80908203125,0.4970703125,-0.27294921875
1969/12/31/18:00:30.163,210,1730346254,691638449,RU_myo,0.4174345871998685,0.7740149145023443,-0.15009089778103182,0.45179862764343126,-4.8125,-0.75,6.25,0.8154296875,0.4931640625,-0.2744140625
1969/12/31/18:00:30.185,211,1730346254,714107722,RU_myo,0.4171905185337916,0.7735878027647805,-0.15131167453478703,0.45234805162456904,-4.3125,2.3125,5.5625,0.84619140625,0.48828125,-0.28515625
1969/12/31/18:00:30.200,212,1730346254,729140860,RU_myo,0.41725782223472624,0.7728669609619812,-0.15222952145310228,0.4532093812306674,-5.375,6.125,5.8125,0.8310546875,0.49658203125,-0.283203125
1969/12/31/18:00:30.223,213,1730346254,751614544,RU_myo,0.41800024265932034,0.7718477027492854,-0.15296562618344872,0.45401369814544756,-7.8125,7.1875,5.9375,0.794921875,0.5205078125,-0.2666015625
1969/12/31/18:00:30.245,214,1730346254,774103514,RU_myo,0.41932730579188643,0.7705978508912033,-0.1535091956428813,0.4547290288427298,-10.1875,8.1875,4.6875,0.77880859375,0.5263671875,-0.25439453125
1969/12/31/18:00:30.260,215,1730346254,789156701,RU_myo,0.4204328813610205,0.7692676544414839,-0.1536948309040432,0.45589622399614727,-8.4375,10.8125,2.875,0.7958984375,0.49755859375,-0.25048828125
