time,.header.seq,.header.stamp.secs,.header.stamp.nsecs,.header.frame_id,.orientation.x,.orientation.y,.orientation.z,.orientation.w,.angular_velocity.x,.angular_velocity.y,.angular_velocity.z,.linear_acceleration.x,.linear_acceleration.y,.linear_acceleration.z
1969/12/31/18:00:05.505000,1,1730346230,33709750,RU_myo,0.3667210079994802,0.7703704796873235,-0.0211804576857223,0.5211491288780895,-20.375,-8.8125,3.9375,0.82568359375,0.4951171875,-0.1865234375
1969/12/31/18:00:05.518000,2,1730346230,47296835,RU_myo,0.3683566186747578,0.7696730673552107,-0.0243536521708746,0.5208873875344463,-18.0625,-6.625,5.6875,0.85986328125,0.52099609375,-0.17578125
1969/12/31/18:00:05.534000,3,1730346230,62967314,RU_myo,0.370379335948178,0.7685920564039976,-0.0261853551617943,0.5209603876594758,-16.1875,-0.5,2.5,0.8408203125,0.55712890625,-0.18017578125
1969/12/31/18:00:05.557000,4,1730346230,86196408,RU_myo,0.3726908091038746,0.7669886516867488,-0.0283821202478384,0.5215596075651177,-20.5,3.3125,3.25,0.83251953125,0.5361328125,-0.1865234375
1969/12/31/18:00:05.586000,5,1730346230,114844070,RU_myo,0.3758168613098077,0.7656116438864573,-0.0306415566635574,0.521211658067963,-25.5,1.75,1.875,0.80712890625,0.56640625,-0.22900390625
1969/12/31/18:00:05.594000,6,1730346230,123044870,RU_myo,0.3783684425999226,0.7646716968691452,-0.0322885797927664,0.5206457195317535,-20.4375,0.5,-0.1875,0.82861328125,0.572265625,-0.2353515625
1969/12/31/18:00:05.617000,7,1730346230,146279522,RU_myo,0.3806372073817747,0.7640211553556244,-0.0325946550259569,0.5199274747398905,-14.0625,1.3125,-6.375,0.833984375,0.564453125,-0.21875
1969/12/31/18:00:05.640000,8,1730346230,168642191,RU_myo,0.3831356400930072,0.7637687214407837,-0.0316787314335304,0.5185179644081721,-10.9375,0.875,-11.3125,0.82861328125,0.61572265625,-0.2373046875
1969/12/31/18:00:05.670000,9,1730346230,198721840,RU_myo,0.3865496402381616,0.7643709371076105,-0.0305186831073868,0.5151553708526897,-13.1875,-8.0,-16.4375,0.81396484375,0.6728515625,-0.2646484375
1969/12/31/18:00:05.677000,10,1730346230,206226241,RU_myo,0.3908757740620456,0.7647834867266444,-0.0299077341178017,0.5113001810302554,-19.1875,-11.75,-20.125,0.87060546875,0.68115234375,-0.26416015625
1969/12/31/18:00:05.698000,11,1730346230,227316936,RU_myo,0.3958298718585601,0.7645589783963492,-0.0295422757100297,0.5078341609658011,-22.8125,-11.3125,-24.25,0.92041015625,0.65673828125,-0.2236328125
1969/12/31/18:00:05.714000,12,1730346230,243233361,RU_myo,0.4014943035302455,0.7629490413694238,-0.029541386881824,0.5058046964662731,-28.4375,-4.9375,-23.8125,0.970703125,0.65771484375,-0.1748046875
1969/12/31/18:00:05.737000,13,1730346230,266179658,RU_myo,0.4074311863797403,0.7604161378155514,-0.0288711537314782,0.5049094792109682,-28.3125,3.6875,-23.6875,0.95947265625,0.681640625,-0.1494140625
1969/12/31/18:00:05.760000,14,1730346230,288729549,RU_myo,0.4139528699516522,0.7565534979431922,-0.0270393868163641,0.5055083557858425,-28.4375,14.0,-25.625,0.9111328125,0.68115234375,-0.078125
1969/12/31/18:00:05.774000,15,1730346230,303150083,RU_myo,0.4205544122227968,0.7510772195067511,-0.0236218516009031,0.5083886356173694,-25.8125,29.9375,-27.8125,0.88916015625,0.6611328125,-0.01123046875
1969/12/31/18:00:05.798000,16,1730346230,326343613,RU_myo,0.4273176139667434,0.743914737755559,-0.0175175196698265,0.5135013692761338,-19.125,47.3125,-31.9375,0.873046875,0.7060546875,0.080078125
1969/12/31/18:00:05.820000,17,1730346230,348747100,RU_myo,0.4352624943748341,0.734959429921102,-0.0078739113412359,0.5199223008112238,-16.3125,66.0,-41.1875,0.81640625,0.79345703125,0.1318359375
1969/12/31/18:00:05.841000,18,1730346230,369789489,RU_myo,0.4430675722198373,0.7257909493409679,0.0056764408618879,0.5261999641971646,-4.5,75.9375,-56.5,0.76416015625,0.8046875,0.16552734375
1969/12/31/18:00:05.857000,19,1730346230,386254879,RU_myo,0.4498471554393124,0.7163983803787259,0.0231942902397474,0.5327972618493566,11.1875,88.375,-71.9375,0.7666015625,0.78955078125,0.1953125
1969/12/31/18:00:05.880000,20,1730346230,408816966,RU_myo,0.4549342592049543,0.7075195221313062,0.043338699052129,0.5390479596188047,19.75,100.625,-84.3125,0.8544921875,0.72607421875,0.24658203125
1969/12/31/18:00:05.901000,21,1730346230,429760651,RU_myo,0.460173681262499,0.6961507938451786,0.0661053318486916,0.5470323028882499,19.8125,123.0625,-92.625,0.8916015625,0.7421875,0.2314453125
1969/12/31/18:00:05.917000,22,1730346230,446008671,RU_myo,0.4690179384737815,0.6803323714509069,0.0885054673069993,0.556180564207847,-7.375,139.1875,-100.4375,0.79541015625,0.7744140625,0.2744140625
1969/12/31/18:00:05.940000,23,1730346230,468804074,RU_myo,0.4827527792949287,0.6585433981303561,0.1079769460832885,0.5671078609722067,-53.1875,155.25,-102.0,0.72509765625,0.78515625,0.33251953125
1969/12/31/18:00:05.961000,24,1730346230,489752426,RU_myo,0.5010596472670016,0.6296053431062396,0.1237237062992096,0.5807140314408884,-104.125,176.0,-100.875,0.697265625,0.76220703125,0.345703125
1969/12/31/18:00:05.977000,25,1730346230,506171239,RU_myo,0.5213249023477191,0.5938989930737978,0.1365418342760622,0.5973781546981767,-142.6875,200.8125,-93.4375,0.6884765625,0.716796875,0.3935546875
1969/12/31/18:00:06.000000,26,1730346230,528683129,RU_myo,0.5420879509823824,0.5529529048473598,0.1461885646439371,0.6156400263042798,-172.6875,214.4375,-83.875,0.59423828125,0.650390625,0.43310546875
1969/12/31/18:00:06.021000,27,1730346230,549834799,RU_myo,0.5602073211161864,0.5097288449162425,0.1529003420566623,0.6347958312931291,-181.875,219.125,-65.0625,0.6201171875,0.60595703125,0.537109375
1969/12/31/18:00:06.037000,28,1730346230,566168879,RU_myo,0.57387944689413,0.4649876224675049,0.1586988472585341,0.6551820871050406,-178.8125,231.25,-45.125,0.66845703125,0.560546875,0.533203125
1969/12/31/18:00:06.060000,29,1730346230,588680142,RU_myo,0.5827520761065418,0.4205068662719143,0.1642595408822356,0.6757165059704009,-166.0625,234.875,-26.4375,0.6728515625,0.5126953125,0.59228515625
1969/12/31/18:00:06.081000,30,1730346230,609869890,RU_myo,0.5857255872788387,0.3794154075161798,0.1691377242965467,0.6959611448679991,-142.625,225.375,0.4375,0.66943359375,0.4912109375,0.6513671875
1969/12/31/18:00:06.097000,31,1730346230,626281011,RU_myo,0.5830341916920594,0.3428499847921165,0.1746905210032112,0.7155475114327902,-112.8125,214.125,23.9375,0.64306640625,0.48681640625,0.64697265625
1969/12/31/18:00:06.120000,32,1730346230,648740213,RU_myo,0.5752194608903368,0.3124520819500885,0.1849442876164814,0.7330019636918564,-61.375,205.75,35.4375,0.55712890625,0.427734375,0.5439453125
1969/12/31/18:00:06.141000,33,1730346230,669730993,RU_myo,0.562044423476963,0.2872481599568405,0.2025874719287619,0.7487007926116885,-1.5625,211.3125,44.25,0.5224609375,0.3720703125,0.5068359375
1969/12/31/18:00:06.157000,34,1730346230,686323197,RU_myo,0.5441543709578728,0.268567496602876,0.2259018874834646,0.7620602716106608,53.8125,202.625,55.9375,0.451171875,0.4130859375,0.52099609375
1969/12/31/18:00:06.180000,35,1730346230,708711905,RU_myo,0.522613811411351,0.2564848441427816,0.2532497901828656,0.7726285476343004,100.25,186.125,66.0,0.39208984375,0.5283203125,0.52197265625
1969/12/31/18:00:06.201000,36,1730346230,729792600,RU_myo,0.5003278138821652,0.2451282787057186,0.2813848020003393,0.7812853504564736,107.625,183.125,63.9375,0.35693359375,0.62744140625,0.40380859375
1969/12/31/18:00:06.217000,37,1730346230,746245799,RU_myo,0.4797076834568732,0.230789508989749,0.306295095506628,0.7891768214039845,83.0,183.375,54.5,0.29248046875,0.70947265625,0.4072265625
1969/12/31/18:00:06.240000,38,1730346230,768826885,RU_myo,0.4610281116860612,0.2169328622973999,0.3267421530326341,0.7960105394542466,63.875,162.3125,50.25,0.1845703125,0.8154296875,0.55126953125
1969/12/31/18:00:06.261000,39,1730346230,789717170,RU_myo,0.4446103257226043,0.2036881736595731,0.3425526013118143,0.8021785970135182,40.6875,141.1875,46.3125,0.06103515625,0.87646484375,0.40234375
1969/12/31/18:00:06.277000,40,1730346230,806349136,RU_myo,0.4333177064763993,0.1874515673459673,0.3491445669876045,0.8094416263675914,-17.8125,122.25,30.875,0.0087890625,0.740234375,0.2392578125
1969/12/31/18:00:06.300000,41,1730346230,828726769,RU_myo,0.4240328832236353,0.1720058535949624,0.3518856444197866,0.816570017527824,-33.0,104.5,26.625,-0.0068359375,0.61376953125,0.33740234375
1969/12/31/18:00:06.321000,42,1730346230,849862525,RU_myo,0.4119381036844728,0.1646775824182409,0.3606060626119226,0.820458140424757,17.8125,85.6875,40.375,0.0302734375,0.56201171875,0.35302734375
1969/12/31/18:00:06.337000,43,1730346230,866219231,RU_myo,0.3984545601021395,0.1635201848213284,0.3759316231110718,0.820469699278946,69.5,71.4375,44.0625,0.025390625,0.59033203125,0.28515625
1969/12/31/18:00:06.367000,44,1730346230,896313001,RU_myo,0.3855923543701153,0.1649922643442175,0.3934055285602966,0.8181247943046788,86.1875,58.0625,41.3125,-0.017578125,0.7041015625,0.2763671875
1969/12/31/18:00:06.381000,45,1730346230,909856157,RU_myo,0.3733147383424671,0.169322283218117,0.4101823155103627,0.8146880007614303,104.3125,41.25,43.6875,-0.02587890625,0.763671875,0.34130859375
1969/12/31/18:00:06.397000,46,1730346230,925644313,RU_myo,0.3621321796289176,0.1766409114859409,0.4264040800417357,0.8098381525900014,99.5,21.375,43.875,-0.03173828125,0.92822265625,0.40625
1969/12/31/18:00:06.420000,47,1730346230,948777894,RU_myo,0.3546356137096387,0.1817126027562124,0.4356341437255923,0.8071164750572379,51.375,10.3125,32.625,-0.03076171875,1.07421875,0.4423828125
1969/12/31/18:00:06.441000,48,1730346230,969794386,RU_myo,0.3517002660309987,0.1826253377238368,0.4355052756215161,0.8082636103405909,-14.4375,3.9375,18.0625,-0.0107421875,1.1279296875,0.48193359375
1969/12/31/18:00:06.457000,49,1730346230,985586968,RU_myo,0.3520093248984984,0.1802468417591929,0.4264763573895974,0.8134607721384235,-61.1875,-1.0,10.1875,0.0322265625,0.9423828125,0.63330078125
1969/12/31/18:00:06.480000,50,1730346231,8727347,RU_myo,0.3523816867061786,0.1783577496198603,0.4169005578041226,0.818663291547422,-55.8125,-3.0625,10.0625,0.0712890625,0.79296875,0.6796875
1969/12/31/18:00:06.501000,51,1730346231,29816043,RU_myo,0.3523217379421379,0.1773206252116962,0.4104926693799163,0.82214509500046,-35.5625,-2.1875,7.875,0.05908203125,0.7431640625,0.64306640625
1969/12/31/18:00:06.517000,52,1730346231,45615084,RU_myo,0.3515225186824024,0.1768294385523389,0.4081054974666682,0.823779807629398,-11.0625,3.0625,5.75,0.05029296875,0.720703125,0.61962890625
1969/12/31/18:00:06.540000,53,1730346231,68817710,RU_myo,0.3491507331314821,0.1773221817739433,0.4109845954850121,0.8232510380671852,20.25,9.125,7.5625,0.015625,0.72119140625,0.5791015625
1969/12/31/18:00:06.561000,54,1730346231,89822776,RU_myo,0.3454149581765091,0.1787807761970304,0.4164633786249022,0.8217567736226086,40.75,11.25,12.5625,0.00341796875,0.69287109375,0.58740234375
1969/12/31/18:00:06.577000,55,1730346231,105561665,RU_myo,0.3402201574749614,0.1814629580504234,0.4248174194520508,0.8190553091418205,61.5625,15.4375,13.75,0.06201171875,0.72265625,0.59765625
1969/12/31/18:00:06.600000,56,1730346231,128586561,RU_myo,0.3346097243842635,0.1839682067300566,0.4353222463167763,0.8152831245167107,67.375,20.1875,12.0625,0.04931640625,0.89697265625,0.5654296875
1969/12/31/18:00:06.629000,57,1730346231,157411659,RU_myo,0.3304013952564952,0.1834817280881257,0.4434446954624861,0.8127276146019274,44.0,24.3125,7.0625,-0.03369140625,0.9658203125,0.55517578125
1969/12/31/18:00:06.644000,58,1730346231,172428103,RU_myo,0.3282666560689836,0.1813462690927762,0.4477806227077099,0.8116939368548428,17.875,20.8125,0.6875,-0.0419921875,0.9912109375,0.568359375
1969/12/31/18:00:06.660000,59,1730346231,188813405,RU_myo,0.3269784791382966,0.178290860101356,0.4488705871911579,0.8122885197633846,-0.1875,20.3125,-2.8125,0.00732421875,0.91357421875,0.59033203125
1969/12/31/18:00:06.682000,60,1730346231,211400940,RU_myo,0.3252627872906437,0.1751133302189635,0.4499600802977341,0.8130654136796143,4.4375,23.3125,-1.125,0.015625,0.7587890625,0.57373046875
1969/12/31/18:00:06.697000,61,1730346231,225708255,RU_myo,0.3227089062270977,0.1737757246129274,0.4546734712475224,0.8117468779864144,25.8125,20.3125,0.6875,-0.00537109375,0.7890625,0.49462890625
1969/12/31/18:00:06.720000,62,1730346231,248858848,RU_myo,0.3200801082223209,0.1737734683655506,0.4627855416746066,0.8081961695216917,47.4375,17.1875,-0.4375,-0.04443359375,0.86083984375,0.4775390625
1969/12/31/18:00:06.742000,63,1730346231,271316467,RU_myo,0.3180045381790902,0.1740784919168455,0.4718796707605655,0.8036786476399387,55.1875,14.6875,-4.75,-0.0625,0.9189453125,0.4970703125
1969/12/31/18:00:06.763000,64,1730346231,292299737,RU_myo,0.3165443734371064,0.1740810939148915,0.4810424618314377,0.7988076003030105,55.75,15.625,-11.0,-0.0322265625,0.91259765625,0.47607421875
1969/12/31/18:00:06.780000,65,1730346231,308946570,RU_myo,0.3159367176267429,0.1732280534437203,0.4885543832852493,0.7946638575700476,44.625,14.6875,-13.625,-0.04931640625,0.84033203125,0.43505859375
1969/12/31/18:00:06.802000,66,1730346231,331178969,RU_myo,0.3151993969774623,0.1732864229316451,0.4948337550922322,0.7910503843586196,38.625,9.5,-9.5625,-0.0302734375,0.7958984375,0.38671875
1969/12/31/18:00:06.824000,67,1730346231,353056661,RU_myo,0.314233047170935,0.1742687159427,0.5007707690346447,0.7874748526713738,37.0,5.1875,-4.875,-0.0400390625,0.83984375,0.36669921875
1969/12/31/18:00:06.826000,68,1730346231,354610833,RU_myo,0.3139859918539216,0.1751216583648719,0.5062596843772212,0.7838662728203851,30.8125,1.9375,-6.3125,-0.0791015625,0.92431640625,0.34326171875
1969/12/31/18:00:06.845000,69,1730346231,374176132,RU_myo,0.3150298063141097,0.1751861158925585,0.5103592735113875,0.780768504662619,20.375,-0.4375,-11.875,-0.0869140625,0.92822265625,0.330078125
1969/12/31/18:00:06.868000,70,1730346231,396717228,RU_myo,0.3166696454612802,0.1753036279423278,0.5135199936903914,0.7780014072955816,17.0625,-2.9375,-14.25,-0.0654296875,0.90673828125,0.3544921875
1969/12/31/18:00:06.886000,71,1730346231,414691364,RU_myo,0.3182595089557634,0.1753051994094654,0.515477858291412,0.7760551202269996,15.0625,-2.5625,-13.75,-0.03759765625,0.86083984375,0.41943359375
1969/12/31/18:00:06.905000,72,1730346231,434296897,RU_myo,0.3191159506296521,0.1756114364884294,0.5174952236874886,0.7742895626888172,17.375,-0.875,-10.25,-0.0205078125,0.83349609375,0.41943359375
1969/12/31/18:00:06.928000,73,1730346231,456713422,RU_myo,0.3194200052202585,0.1761601633987514,0.5210336641620728,0.7716620879026387,26.125,0.625,-8.375,-0.05517578125,0.87255859375,0.40380859375
1969/12/31/18:00:06.946000,74,1730346231,474624034,RU_myo,0.3197731449629639,0.1764581336300684,0.525345955086129,0.7685175927140061,30.6875,1.875,-9.0,-0.08984375,0.908203125,0.41650390625
1969/12/31/18:00:06.965000,75,1730346231,494286161,RU_myo,0.3194180879801839,0.1770746939099013,0.5303695330517519,0.7650652235321279,36.5,3.75,-7.0,-0.087890625,0.93408203125,0.41748046875
1969/12/31/18:00:06.988000,76,1730346231,516745681,RU_myo,0.3192978684069819,0.1770757247655619,0.5344622702679285,0.7622618582807094,28.5625,4.5,-7.4375,-0.09033203125,0.92138671875,0.39453125
1969/12/31/18:00:07.004000,77,1730346231,533130917,RU_myo,0.3198449500006242,0.1760978398381299,0.5373273081785296,0.7602421473774379,17.5625,5.1875,-10.5,-0.09814453125,0.92431640625,0.37548828125
1969/12/31/18:00:07.025000,78,1730346231,554298307,RU_myo,0.3207676434750977,0.1754913368203436,0.5399639532218296,0.7581225750638846,14.8125,1.8125,-10.1875,-0.115234375,0.95166015625,0.34375
1969/12/31/18:00:07.048000,79,1730346231,576622403,RU_myo,0.3219694864494414,0.1747485572900001,0.5415191059297525,0.7566740708082893,7.0625,-0.375,-8.9375,-0.1298828125,0.94189453125,0.333984375
1969/12/31/18:00:07.064000,80,1730346231,593099791,RU_myo,0.3235746844413087,0.173903843798017,0.5426483577972523,0.7553738388910007,5.75,-1.4375,-11.0625,-0.119140625,0.8876953125,0.33349609375
1969/12/31/18:00:07.085000,81,1730346231,614170984,RU_myo,0.3252786005210425,0.173229624372062,0.5439825272740723,0.7538357508791285,6.75,-2.5,-10.9375,-0.12646484375,0.87646484375,0.3134765625
1969/12/31/18:00:07.108000,82,1730346231,636627371,RU_myo,0.326791792378168,0.1724293637408152,0.5450599002497274,0.7525855061678767,3.5625,-1.625,-10.75,-0.126953125,0.9697265625,0.330078125
1969/12/31/18:00:07.123000,83,1730346231,651684575,RU_myo,0.3283165900469359,0.1707807806193208,0.5454242514704256,0.7520335947143144,-0.25,2.6875,-13.4375,-0.109375,1.00830078125,0.39306640625
1969/12/31/18:00:07.145000,84,1730346231,674178248,RU_myo,0.3305812278176381,0.1677931675167442,0.5444580044559327,0.7524141054852335,-8.75,5.0,-17.625,-0.10595703125,0.9609375,0.42626953125
1969/12/31/18:00:07.171000,85,1730346231,699505894,RU_myo,0.3332625674966548,0.163152169032703,0.5421315246346682,0.753930262585839,-21.5625,9.125,-20.5,-0.123046875,0.91796875,0.4296875
1969/12/31/18:00:07.186000,86,1730346231,714511382,RU_myo,0.3355246664965935,0.1575385054079876,0.5395739588557189,0.7559528824013664,-28.3125,13.75,-19.4375,-0.15576171875,0.96728515625,0.41552734375
1969/12/31/18:00:07.205000,87,1730346231,734148539,RU_myo,0.3381504884152347,0.1507028079236849,0.5367070838691623,0.7582139651794307,-33.125,16.9375,-21.875,-0.20263671875,1.0087890625,0.44384765625
1969/12/31/18:00:07.228000,88,1730346231,756651684,RU_myo,0.3414552721763805,0.1430156779959348,0.5334857130535512,0.7604918191000223,-33.9375,17.9375,-27.0,-0.20166015625,0.86083984375,0.44580078125
1969/12/31/18:00:07.244000,89,1730346231,773231980,RU_myo,0.3437719529684306,0.1362391688610683,0.5311618492065489,0.7623167472696608,-25.0625,19.875,-24.5,-0.14404296875,0.76220703125,0.42529296875
1969/12/31/18:00:07.265000,90,1730346231,794123871,RU_myo,0.3437139630312685,0.1306247346629221,0.5304951256801198,0.7637884602042734,-14.375,25.9375,-14.875,-0.12890625,0.80859375,0.42724609375
1969/12/31/18:00:07.288000,91,1730346231,816623522,RU_myo,0.3424155780007241,0.1243316457018672,0.5311408840931018,0.7649722707812968,-11.875,32.875,-10.125,-0.19580078125,0.8818359375,0.40234375
1969/12/31/18:00:07.312000,92,1730346231,840654471,RU_myo,0.3415783318743025,0.1178677195942241,0.5317781321102436,0.7659265383057089,-9.375,32.0625,-11.5625,-0.21142578125,0.78515625,0.40087890625
1969/12/31/18:00:07.325000,93,1730346231,854223239,RU_myo,0.3402879509873126,0.1127985889550769,0.5332907314396682,0.7662124930482036,-0.5625,30.0,-10.3125,-0.158203125,0.759765625,0.38623046875
1969/12/31/18:00:07.348000,94,1730346231,876678603,RU_myo,0.3377868573145982,0.1078549651020771,0.5353683638428516,0.7665820637900322,0.1875,34.0,-5.875,-0.17138671875,0.84326171875,0.38427734375
1969/12/31/18:00:07.366000,95,1730346231,894575474,RU_myo,0.3349831591377949,0.1028510610690933,0.5375722818014869,0.7669576156279871,-0.375,33.625,-1.25,-0.22998046875,0.84619140625,0.36767578125
1969/12/31/18:00:07.385000,96,1730346231,914150548,RU_myo,0.3318645455831758,0.0991870308207946,0.5382956460360543,0.7682874811946723,-4.125,28.6875,4.1875,-0.1796875,0.81591796875,0.39453125
1969/12/31/18:00:07.408000,97,1730346231,936593205,RU_myo,0.3282020614056083,0.0968064849152491,0.5401875104035027,0.7688363707392677,4.4375,27.1875,4.9375,-0.1220703125,0.7880859375,0.3564453125
1969/12/31/18:00:07.424000,98,1730346231,953061435,RU_myo,0.324346061283377,0.0943008401736578,0.5421230177491447,0.769421612446039,0.8125,26.4375,8.75,-0.19091796875,0.8544921875,0.32470703125
1969/12/31/18:00:07.447000,99,1730346231,975644289,RU_myo,0.3209375522213108,0.0930218390234457,0.5432988117766998,0.7701768797886078,0.125,18.25,11.75,-0.18994140625,0.8173828125,0.322265625
1969/12/31/18:00:07.468000,100,1730346231,996662192,RU_myo,0.3167976200634285,0.0930249658914576,0.5434391544170913,0.7717898088789962,0.625,16.625,16.875,-0.10595703125,0.7958984375,0.3935546875
1969/12/31/18:00:07.484000,101,1730346232,13033430,RU_myo,0.3117777596729537,0.0925323186499995,0.5433527048959738,0.7739510557269094,-7.75,21.0,18.125,-0.099609375,0.91796875,0.365234375
1969/12/31/18:00:07.505000,102,1730346232,34174621,RU_myo,0.3075044976137023,0.0912503421858842,0.5424359806059891,0.7764519083255077,-17.0,18.0,18.9375,-0.18603515625,0.93798828125,0.328125
1969/12/31/18:00:07.528000,103,1730346232,56643027,RU_myo,0.3036578101946504,0.0918603023804922,0.5410907512312716,0.7788288759967317,-12.25,7.875,23.0,-0.154296875,0.8076171875,0.32861328125
1969/12/31/18:00:07.544000,104,1730346232,73060845,RU_myo,0.2990240512102243,0.0945475107827388,0.540550520007705,0.7806731200201611,1.6875,4.9375,28.25,-0.072265625,0.7314453125,0.36474609375
1969/12/31/18:00:07.565000,105,1730346232,94139306,RU_myo,0.2935317862131651,0.097355624664171,0.5422616736780536,0.7812254796719279,9.375,8.4375,29.9375,-0.1123046875,0.88525390625,0.31982421875
1969/12/31/18:00:07.588000,106,1730346232,116638662,RU_myo,0.2885866968106903,0.0999188711250211,0.5442740218825985,0.7813448193472181,8.875,6.0,28.9375,-0.1669921875,0.96875,0.30419921875
1969/12/31/18:00:07.604000,107,1730346232,133021608,RU_myo,0.284378240375762,0.1027277481331632,0.5444631689529508,0.7823911322465159,5.625,1.9375,28.625,-0.13525390625,0.892578125,0.39404296875
1969/12/31/18:00:07.625000,108,1730346232,154143515,RU_myo,0.2800522243216147,0.1055384254254733,0.5435015268874581,0.7842438923461434,-0.5625,1.9375,28.875,-0.09814453125,0.90185546875,0.42041015625
1969/12/31/18:00:07.648000,109,1730346232,176629330,RU_myo,0.276442651968762,0.1069391755904771,0.5420204790202267,0.7863569629749527,-12.8125,2.625,26.0,-0.15869140625,0.966796875,0.35107421875
1969/12/31/18:00:07.673000,110,1730346232,202069149,RU_myo,0.2739364139694324,0.1084026451002032,0.5399989871630055,0.788421715517638,-14.625,-2.625,23.75,-0.17333984375,0.89599609375,0.34228515625
1969/12/31/18:00:07.685000,111,1730346232,214175023,RU_myo,0.2711975057760787,0.1109694047942631,0.5378781050863845,0.7904586315102904,-9.125,-4.8125,24.375,-0.1044921875,0.8662109375,0.3955078125
1969/12/31/18:00:07.708000,112,1730346232,236687498,RU_myo,0.2681388030773453,0.113347087938682,0.5363386438972532,0.7922088607195231,-9.5,-2.0625,22.75,-0.08251953125,0.9580078125,0.37158203125
1969/12/31/18:00:07.726000,113,1730346232,254617518,RU_myo,0.2660674046156247,0.1145084769577682,0.5345763545821614,0.7939295094827783,-14.9375,-1.0,16.0625,-0.1005859375,0.978515625,0.3623046875
1969/12/31/18:00:07.745000,114,1730346232,274111324,RU_myo,0.2644771996861129,0.1162161523661109,0.5329218625569933,0.795323773807997,-4.3125,-3.9375,15.3125,-0.08544921875,0.8466796875,0.43310546875
1969/12/31/18:00:07.768000,115,1730346232,296665976,RU_myo,0.2619730541121506,0.1193893974471963,0.5327355117173463,0.7958072412661277,7.625,-5.4375,20.3125,-0.05810546875,0.86181640625,0.4404296875
1969/12/31/18:00:07.785000,116,1730346232,314391056,RU_myo,0.2594107475355261,0.1214042298466262,0.5326160430576473,0.7964215138455399,-0.5,-1.3125,18.3125,-0.08447265625,0.98828125,0.38916015625
1969/12/31/18:00:07.805000,117,1730346232,334164550,RU_myo,0.2580681644496317,0.1222588773397853,0.5317009887702795,0.7973378505689543,-9.125,-0.875,10.875,-0.09033203125,1.0048828125,0.3798828125
1969/12/31/18:00:07.828000,118,1730346232,356718637,RU_myo,0.2572185890390439,0.1234820136748898,0.5298800596696583,0.7986350306091244,-8.8125,-4.0625,9.1875,-0.0498046875,0.88818359375,0.4189453125
1969/12/31/18:00:07.846000,119,1730346232,374548780,RU_myo,0.2558178355431827,0.1254368055455119,0.5280553794521771,0.7999877243209147,-6.6875,-5.0625,13.0,-0.02392578125,0.853515625,0.412109375
1969/12/31/18:00:07.865000,120,1730346232,394187621,RU_myo,0.2544665644230145,0.1270806877257654,0.5272444671350442,0.8006937855843379,-5.875,-4.25,11.6875,-0.05029296875,0.92431640625,0.36865234375
1969/12/31/18:00:07.883000,121,1730346232,412111902,RU_myo,0.2537959987325812,0.1282408353384206,0.5268189670661155,0.8010016573755804,-1.75,-3.6875,7.5,-0.06201171875,0.90576171875,0.39306640625
1969/12/31/18:00:07.906000,122,1730346232,434459453,RU_myo,0.2526921058263532,0.1297641103832915,0.5262587769166226,0.8014734400014116,0.875,-3.1875,8.625,-0.02978515625,0.873046875,0.42431640625
1969/12/31/18:00:07.925000,123,1730346232,454153843,RU_myo,0.2508589522354023,0.1305565203969648,0.5254610023831091,0.8024434659461883,-5.125,2.8125,9.5625,-0.00537109375,0.96923828125,0.42529296875
1969/12/31/18:00:07.943000,124,1730346232,472072367,RU_myo,0.2504438895425782,0.1296472876891143,0.5241437191084863,0.8035812346644022,-17.625,3.875,1.9375,-0.06689453125,1.04296875,0.365234375
1969/12/31/18:00:07.966000,125,1730346232,494613413,RU_myo,0.2517254776018835,0.1283043050240444,0.5206639970766408,0.8056558144682979,-25.3125,-2.0,-2.8125,-0.076171875,0.884765625,0.41650390625
1969/12/31/18:00:07.985000,126,1730346232,514109719,RU_myo,0.2512867020849072,0.1291529418536953,0.5182597491870166,0.8072058865855958,-3.3125,-2.5625,5.1875,0.0126953125,0.65966796875,0.486328125
1969/12/31/18:00:08.008000,127,1730346232,536604489,RU_myo,0.247995327087965,0.1309254188047465,0.5200394257419302,0.806793559795403,19.375,5.5625,15.375,0.01025390625,0.8212890625,0.46484375
1969/12/31/18:00:08.026000,128,1730346232,554669009,RU_myo,0.2450010160380192,0.1312897821369655,0.5232669931474687,0.8055613875609812,17.8125,9.875,12.625,-0.0830078125,1.01953125,0.41455078125
1969/12/31/18:00:08.045000,129,1730346232,574114701,RU_myo,0.2441493975492035,0.131047189134535,0.5245549806344638,0.8050216010691114,5.125,3.4375,4.125,-0.091796875,0.96435546875,0.396484375
1969/12/31/18:00:08.068000,130,1730346232,596643229,RU_myo,0.2436079102432513,0.1314176473950689,0.524205645995751,0.8053527355924475,-0.5625,0.3125,3.125,-0.0224609375,0.84326171875,0.40234375
1969/12/31/18:00:08.086000,131,1730346232,614472143,RU_myo,0.2423788385383226,0.1317793785958797,0.523882541217432,0.805874541732932,-1.5,2.25,6.9375,-0.02685546875,0.8681640625,0.4013671875
1969/12/31/18:00:08.105000,132,1730346232,634167938,RU_myo,0.24165645736545,0.1320290268455338,0.5235381244818047,0.806274348406221,-4.75,-0.375,7.25,-0.078125,0.9130859375,0.37353515625
1969/12/31/18:00:08.123000,133,1730346232,652128682,RU_myo,0.2413388926646926,0.1328157386035334,0.523267153974307,0.806416148175498,-3.0,-4.0625,6.25,-0.07080078125,0.90185546875,0.37451171875
1969/12/31/18:00:08.146000,134,1730346232,674531865,RU_myo,0.240862435532177,0.1350807323448322,0.5235980669019298,0.8059674604072139,-0.0625,-8.9375,7.8125,-0.02783203125,0.8427734375,0.28369140625
1969/12/31/18:00:08.165000,135,1730346232,694101679,RU_myo,0.2392731831955201,0.1373989631053866,0.5229828146987797,0.806448289892656,2.125,-1.8125,5.1875,0.125,1.0634765625,0.5146484375
1969/12/31/18:00:08.188000,136,1730346232,716597420,RU_myo,0.2386537413008924,0.1387975978819,0.5265031131615084,0.8040983089253085,26.8125,-0.375,-1.3125,0.0009765625,1.1044921875,0.51123046875
1969/12/31/18:00:08.206000,137,1730346232,734405407,RU_myo,0.239759180424751,0.1367872513573999,0.5223673793470008,0.806806732905896,-27.375,1.5,-2.25,-0.056640625,0.83544921875,0.43896484375
1969/12/31/18:00:08.225000,138,1730346232,754104512,RU_myo,0.2408582375371281,0.1367264196865603,0.5210253207341424,0.8073573005330954,-14.0625,-3.625,-5.25,-0.001953125,0.90234375,0.33740234375
1969/12/31/18:00:08.248000,139,1730346232,776755312,RU_myo,0.241104863056502,0.1365447034575684,0.5217020922896007,0.8068772619604812,11.25,2.0,-5.25,0.005859375,0.87158203125,0.51025390625
1969/12/31/18:00:08.266000,140,1730346232,794626013,RU_myo,0.2399440015675779,0.13611679559799,0.5218827813286163,0.80717870178826,6.125,6.875,2.25,0.0029296875,0.859375,0.4912109375
1969/12/31/18:00:08.286000,141,1730346232,814816047,RU_myo,0.2386634753324554,0.1356902572030814,0.5220076831312427,0.8075493040021446,0.75,6.3125,4.875,-0.025390625,0.85595703125,0.40283203125
1969/12/31/18:00:08.302000,142,1730346232,831152458,RU_myo,0.2374456075180052,0.1352646442827505,0.5225634565454095,0.8076202655708811,1.0,6.5,3.5,-0.02392578125,0.90869140625,0.39404296875
1969/12/31/18:00:08.325000,143,1730346232,853714890,RU_myo,0.2362153548416605,0.1350761189314198,0.5230308464181367,0.8077100234159416,1.125,5.9375,2.875,0.0,0.9150390625,0.39404296875
1969/12/31/18:00:08.346000,144,1730346232,875295351,RU_myo,0.235967387951791,0.1349518610350258,0.5235717159468348,0.8074528130404147,-0.5,2.75,-1.875,0.00390625,0.8662109375,0.3388671875
1969/12/31/18:00:08.364000,145,1730346232,892739023,RU_myo,0.2365258699745606,0.1353233170925422,0.5227984713115128,0.8077282160963513,-11.9375,-3.5,-2.4375,0.00048828125,0.8349609375,0.26171875
1969/12/31/18:00:08.385000,146,1730346232,914172344,RU_myo,0.2371991033064679,0.1369113712600122,0.5220699769892486,0.8077343628549897,-14.1875,-10.3125,1.25,-0.01171875,0.865234375,0.203125
1969/12/31/18:00:08.406000,147,1730346232,934818494,RU_myo,0.2393958237149628,0.1394135801542517,0.5199320822039912,0.808037204063916,-27.375,-21.3125,-0.6875,-0.0244140625,0.94580078125,0.15625
1969/12/31/18:00:08.422000,148,1730346232,950526831,RU_myo,0.2453106882728772,0.1428283181285227,0.5133884546064121,0.8098487713372817,-56.8125,-42.875,-7.0625,-0.06591796875,0.98681640625,0.13916015625
1969/12/31/18:00:08.445000,149,1730346232,973701659,RU_myo,0.2562410461793107,0.1491789225493653,0.5033262665065737,0.8116334423645296,-79.1875,-76.9375,-17.3125,-0.0859375,0.994140625,0.0693359375
1969/12/31/18:00:08.466000,150,1730346232,994882258,RU_myo,0.2719828686371419,0.156927279009446,0.4809750908574233,0.8185732161787949,-134.6875,-108.5,-21.0625,-0.05126953125,0.98828125,-0.03515625
1969/12/31/18:00:08.482000,151,1730346233,10492656,RU_myo,0.2917553648855842,0.1646159454176612,0.4491689812119275,0.8282678455015433,-191.125,-131.0625,-29.0,0.06396484375,0.9697265625,0.00537109375
1969/12/31/18:00:08.505000,152,1730346233,33819637,RU_myo,0.3150287892374588,0.1723166580153742,0.4125711270017408,0.8371671855050858,-212.3125,-147.5,-43.5,0.18310546875,0.88525390625,0.1875
1969/12/31/18:00:08.527000,153,1730346233,56285107,RU_myo,0.3398521300739912,0.1792646742146753,0.3740326603975248,0.8440759890074039,-214.6875,-152.1875,-55.625,0.29345703125,0.5966796875,0.4052734375
1969/12/31/18:00:08.542000,154,1730346233,70516615,RU_myo,0.3640373597496112,0.1867186927354226,0.3380957303241275,0.8475282931125674,-190.6875,-151.0,-61.3125,0.349609375,0.419921875,0.4873046875
1969/12/31/18:00:08.565000,155,1730346233,93746217,RU_myo,0.3850320382337929,0.1972770367107829,0.3096492596639238,0.8467286674665783,-134.5625,-148.75,-56.1875,0.3408203125,0.30712890625,0.54296875
1969/12/31/18:00:08.587000,156,1730346233,116216469,RU_myo,0.4018743199079636,0.2136330679948166,0.2902968203952422,0.8417753259190045,-65.0,-155.0,-45.125,0.31787109375,0.263671875,0.56494140625
1969/12/31/18:00:08.602000,157,1730346233,130608349,RU_myo,0.415360270555392,0.2368255473556092,0.2779037930696105,0.8331620415989861,-6.5,-170.625,-34.0625,0.3564453125,0.3310546875,0.53759765625
1969/12/31/18:00:08.625000,158,1730346233,153743262,RU_myo,0.425872605819662,0.2638737673725668,0.270160836083965,0.8222020926459578,31.4375,-175.4375,-26.3125,0.4560546875,0.43603515625,0.5576171875
1969/12/31/18:00:08.647000,159,1730346233,176277385,RU_myo,0.4339856797150033,0.2922536476055465,0.2628329587697333,0.8106559510963374,41.6875,-178.0625,-15.375,0.5009765625,0.4599609375,0.5625
1969/12/31/18:00:08.668000,160,1730346233,197432661,RU_myo,0.4402667838722201,0.3213038056707842,0.2523309142558932,0.7995361987996965,29.5625,-186.375,1.5,0.47802734375,0.53955078125,0.49560546875
1969/12/31/18:00:08.685000,161,1730346233,213762399,RU_myo,0.4453803411279561,0.3512626919544179,0.2360265560013439,0.7890135219625996,6.125,-202.875,21.1875,0.51318359375,0.65234375,0.56396484375
1969/12/31/18:00:08.707000,162,1730346233,236277010,RU_myo,0.4513828796327138,0.3803335663274428,0.2125375506262487,0.7787346556259855,-31.0625,-218.625,31.8125,0.54345703125,0.7001953125,0.56298828125
1969/12/31/18:00:08.729000,163,1730346233,257381304,RU_myo,0.4595766874382551,0.4067152966398052,0.1812913749092333,0.7684434743206525,-75.25,-229.125,33.8125,0.60546875,0.47509765625,0.5400390625
1969/12/31/18:00:08.745000,164,1730346233,273636867,RU_myo,0.4671301688360741,0.4337419286226503,0.1473477365177424,0.756271108307717,-81.3125,-241.9375,37.25,0.7197265625,0.33349609375,0.4794921875
1969/12/31/18:00:08.767000,165,1730346233,296308528,RU_myo,0.4717667699323443,0.4637707229843384,0.1155459303250003,0.7409466710064339,-53.625,-255.0,37.9375,0.88916015625,0.4052734375,0.56689453125
1969/12/31/18:00:08.789000,166,1730346233,317292967,RU_myo,0.4739095365186518,0.4946018771780829,0.0881408256997595,0.7231942540794677,-25.125,-253.0,32.875,0.8583984375,0.5126953125,0.59375
1969/12/31/18:00:08.805000,167,1730346233,333665028,RU_myo,0.472755901773548,0.5272037086659953,0.0632986275195828,0.7032434789326076,1.0,-258.875,35.0,0.83642578125,0.478515625,0.5537109375
1969/12/31/18:00:08.828000,168,1730346233,356700037,RU_myo,0.4671896115147008,0.5605176642983404,0.0402244517883705,0.6825949079656257,24.4375,-258.75,45.125,0.91748046875,0.49755859375,0.5791015625
1969/12/31/18:00:08.849000,169,1730346233,377397892,RU_myo,0.4601012409624838,0.59291900433929,0.0225839027800635,0.6604875999542369,47.8125,-246.4375,32.3125,0.9072265625,0.63916015625,0.564453125
1969/12/31/18:00:08.865000,170,1730346233,393753003,RU_myo,0.4536367152481897,0.622529717278833,0.0071414821964529,0.6376672180029384,46.625,-232.25,21.25,0.98095703125,0.75,0.48486328125
1969/12/31/18:00:08.887000,171,1730346233,416230312,RU_myo,0.4482216699656211,0.6478246742945849,-0.0093392231383276,0.6159004017367721,27.6875,-215.6875,22.875,1.041015625,0.7236328125,0.40087890625
1969/12/31/18:00:08.909000,172,1730346233,437409749,RU_myo,0.4448914441507468,0.6680390802894669,-0.0251468342694618,0.5959555577840434,10.625,-190.5,16.625,1.12548828125,0.66943359375,0.44580078125
1969/12/31/18:00:08.925000,173,1730346233,453745786,RU_myo,0.4436773322754757,0.6852614402884531,-0.0396739944942989,0.5761884738864342,-0.8125,-176.25,6.0625,1.04931640625,0.66162109375,0.38671875
1969/12/31/18:00:08.947000,174,1730346233,476293919,RU_myo,0.4444860784930632,0.699140832609111,-0.0528597835725065,0.5575303269645207,-13.0,-156.4375,-1.75,1.03076171875,0.65869140625,0.298828125
1969/12/31/18:00:08.968000,175,1730346233,497241395,RU_myo,0.4453934976803431,0.7097486077877251,-0.0640287486729724,0.5420164806634846,-13.625,-129.0,-2.4375,1.02197265625,0.58984375,0.32421875
1969/12/31/18:00:08.985000,176,1730346233,513605072,RU_myo,0.446734233377844,0.7179853514446753,-0.0730009759693812,0.5287687749354095,-14.375,-106.25,-6.8125,0.97265625,0.505859375,0.251953125
1969/12/31/18:00:09.007000,177,1730346233,536276803,RU_myo,0.4499020022274042,0.7213325006543837,-0.0803243840633921,0.520399466963892,-18.625,-80.0,-10.625,0.93994140625,0.50048828125,0.24462890625
1969/12/31/18:00:09.036000,178,1730346233,565064124,RU_myo,0.451627996144647,0.7250829796191731,-0.0849053308064879,0.5129112111911702,-5.5,-66.4375,-11.375,0.82861328125,0.501953125,0.1650390625
1969/12/31/18:00:09.045000,179,1730346233,573885520,RU_myo,0.4513163506648672,0.7292842517911594,-0.0854534610401425,0.5071052530867888,15.75,-49.9375,-15.625,0.794921875,0.5283203125,0.1279296875
1969/12/31/18:00:09.067000,180,1730346233,596295190,RU_myo,0.4496660194456676,0.7325765664974757,-0.0847816073041987,0.503928689635324,23.3125,-33.6875,-14.4375,0.88916015625,0.509765625,0.10986328125
1969/12/31/18:00:09.090000,181,1730346233,618794298,RU_myo,0.4473390096854046,0.7340900899831302,-0.0840477304320919,0.5039201615449175,24.375,-17.4375,-7.3125,0.966796875,0.49951171875,0.1298828125
1969/12/31/18:00:09.106000,182,1730346233,634421237,RU_myo,0.4446021857679601,0.7359985112561865,-0.082157405552399,0.5038702695654188,24.6875,-7.0625,-3.9375,0.86767578125,0.56103515625,-0.02490234375
1969/12/31/18:00:09.127000,183,1730346233,656245340,RU_myo,0.4420252219758972,0.7386618663839144,-0.0789199961357132,0.5027563868289789,26.9375,-5.0,-5.875,0.74951171875,0.60986328125,-0.09765625
1969/12/31/18:00:09.148000,184,1730346233,677313729,RU_myo,0.4402245059456511,0.7402388496398934,-0.07587341387832,0.5024858753389628,22.625,-2.0625,-8.375,0.81982421875,0.59423828125,-0.05322265625
1969/12/31/18:00:09.165000,185,1730346233,693816525,RU_myo,0.4375875795434243,0.7413169414918244,-0.0733687084127766,0.5035705860277934,22.6875,3.5,-7.1875,0.88525390625,0.515625,-0.06640625
1969/12/31/18:00:09.187000,186,1730346233,716021891,RU_myo,0.4326881149311219,0.7430589802752826,-0.0710465461672769,0.5055657576491018,32.6875,5.625,-0.75,0.84228515625,0.431640625,-0.091796875
1969/12/31/18:00:09.210000,187,1730346233,738794522,RU_myo,0.4258673506836757,0.7460155883697699,-0.0675698949701632,0.5074761578879289,44.0,8.6875,1.875,0.7900390625,0.43115234375,-0.17333984375
1969/12/31/18:00:09.224000,188,1730346233,752930009,RU_myo,0.4176833824647264,0.7502186838921457,-0.0623198499921797,0.5087521544415454,55.9375,9.375,1.6875,0.79443359375,0.52587890625,-0.24560546875
1969/12/31/18:00:09.248000,189,1730346233,776888267,RU_myo,0.4104194981301731,0.7544906925025386,-0.0573146800630922,0.5089348268009196,51.125,5.0625,-0.125,0.83203125,0.59521484375,-0.2763671875
1969/12/31/18:00:09.276000,190,1730346233,805063151,RU_myo,0.4045583144560957,0.7578449052937363,-0.0546898385263521,0.5089328946793793,35.9375,1.3125,3.75,0.82080078125,0.5458984375,-0.275390625
1969/12/31/18:00:09.284000,191,1730346233,813318907,RU_myo,0.4003370721260471,0.7602681156276936,-0.0545054132350297,0.5086764993289337,19.5625,-1.5625,11.625,0.84130859375,0.59716796875,-0.2998046875
1969/12/31/18:00:09.284000,1,1730346239,692282126,RU_myo,0.4875117727369206,0.7077984871237426,-0.0720250271478109,0.5061284111098718,-89.5625,102.875,-35.25,1.001953125,0.8193359375,0.2294921875
1969/12/31/18:00:09.307000,2,1730346239,714911251,RU_myo,0.5072178034646573,0.6867277384814512,-0.0651265218167014,0.5166175076443874,-111.75,127.1875,-47.5625,0.9384765625,0.74169921875,0.3349609375
1969/12/31/18:00:09.323000,3,1730346239,731202898,RU_myo,0.5272399728546864,0.6609116029255087,-0.0573750375646451,0.5309632465689879,-122.375,159.5625,-40.75,0.92529296875,0.59228515625,0.39306640625
1969/12/31/18:00:09.346000,4,1730346239,753775386,RU_myo,0.5456101738654505,0.6310620413463355,-0.0465712677770823,0.5494555079020903,-117.625,196.3125,-33.6875,0.91015625,0.5830078125,0.49853515625
1969/12/31/18:00:09.368000,5,1730346239,776147049,RU_myo,0.5640673288586621,0.5958079425375393,-0.0334497236462013,0.5707206498028883,-127.375,232.0,-32.5625,0.89697265625,0.5927734375,0.51806640625
1969/12/31/18:00:09.383000,6,1730346239,791292401,RU_myo,0.5819946379071415,0.5555653061594967,-0.0205697108520929,0.5934697288275969,-142.9375,254.0,-24.375,0.91015625,0.564453125,0.55908203125
1969/12/31/18:00:09.406000,7,1730346239,813758540,RU_myo,0.5975735423885175,0.5121797338286057,-0.0076909362963179,0.6168619223062674,-146.0625,267.0,-14.25,0.876953125,0.53955078125,0.623046875
1969/12/31/18:00:09.427000,8,1730346239,834774918,RU_myo,0.6106367077537771,0.4676217331169218,0.0053104151913813,0.6390810006179575,-143.0625,269.875,-9.625,0.8330078125,0.52197265625,0.62890625
1969/12/31/18:00:09.451000,9,1730346239,858782135,RU_myo,0.6202255288945377,0.4237383743318454,0.0194106601897906,0.6598403668290477,-127.375,269.0625,-5.8125,0.82763671875,0.419921875,0.60400390625
1969/12/31/18:00:09.466000,10,1730346239,873804459,RU_myo,0.6246033350016594,0.3831364344576777,0.036134581678978,0.6795376652568625,-92.1875,265.0625,3.0625,0.80908203125,0.28759765625,0.6337890625
1969/12/31/18:00:09.487000,11,1730346239,894681331,RU_myo,0.622117404945213,0.3498189607281216,0.0568890719592757,0.6981119270367346,-34.1875,250.25,19.0,0.7255859375,0.23486328125,0.65087890625
1969/12/31/18:00:09.504000,12,1730346239,911366082,RU_myo,0.6129533550601188,0.3249714859928374,0.0826467678501693,0.7154377887532019,28.625,235.1875,33.8125,0.701171875,0.2265625,0.55126953125
1969/12/31/18:00:09.526000,13,1730346239,933972460,RU_myo,0.5988531194103615,0.306903830842452,0.1132272486501091,0.7310024419588715,81.3125,222.875,43.0625,0.63525390625,0.31494140625,0.529296875
1969/12/31/18:00:09.547000,14,1730346239,954916195,RU_myo,0.5821080526894881,0.2939532747984245,0.1469766373992122,0.7437335243809806,116.9375,208.875,42.5,0.57421875,0.44091796875,0.49365234375
1969/12/31/18:00:09.564000,15,1730346239,971352578,RU_myo,0.5657804113773824,0.2822492849508055,0.1812890087162397,0.7532344671913799,124.625,199.25,30.5,0.4873046875,0.4833984375,0.45654296875
1969/12/31/18:00:09.586000,16,1730346239,993905833,RU_myo,0.5484185073716406,0.2717982875154051,0.2152168789084479,0.7609497530776007,130.5,189.875,31.625,0.412109375,0.51953125,0.4150390625
1969/12/31/18:00:09.607000,17,1730346240,14965623,RU_myo,0.5309081984838825,0.2616087075996689,0.2464712928808826,0.7674303034649177,120.0,178.375,32.8125,0.37451171875,0.58203125,0.37744140625
1969/12/31/18:00:09.624000,18,1730346240,31401231,RU_myo,0.5140747868413071,0.2497736912555959,0.2749830105343254,0.7731264842236993,102.25,174.6875,29.3125,0.32470703125,0.64013671875,0.318359375
1969/12/31/18:00:09.646000,19,1730346240,53882737,RU_myo,0.4991790503078832,0.2345738677345555,0.2990923632316737,0.7786778117849922,72.5625,172.125,21.8125,0.22705078125,0.564453125,0.39404296875
1969/12/31/18:00:09.667000,20,1730346240,74847995,RU_myo,0.4845345568597277,0.2230397166497159,0.3197879243371269,0.7830806034206912,69.6875,142.5,29.5625,0.10791015625,0.65234375,0.50146484375
1969/12/31/18:00:09.683000,21,1730346240,91069936,RU_myo,0.4705533942152149,0.214858989186348,0.3371210787716477,0.786615850467178,62.0,115.5,35.125,0.04931640625,0.73095703125,0.32763671875
1969/12/31/18:00:09.706000,22,1730346240,113542269,RU_myo,0.4592434264759058,0.2068548607558273,0.3510856179013039,0.7893322688977159,30.125,99.125,25.5625,0.01220703125,0.69677734375,0.24365234375
1969/12/31/18:00:09.727000,23,1730346240,134807914,RU_myo,0.4484516593521503,0.2006343547421421,0.361166254033847,0.7925881035371816,28.625,80.875,32.0625,0.01171875,0.5771484375,0.37548828125
1969/12/31/18:00:09.743000,24,1730346240,151253187,RU_myo,0.4340631253212128,0.2013134843635719,0.3753416056251072,0.7938392553511986,74.6875,67.375,50.3125,0.056640625,0.62646484375,0.41748046875
1969/12/31/18:00:09.766000,25,1730346240,173560380,RU_myo,0.4195832242242596,0.2049084788654116,0.391749364717966,0.7927766826046966,90.125,54.25,52.0625,-0.001953125,0.7724609375,0.37158203125
1969/12/31/18:00:09.787000,26,1730346240,194652491,RU_myo,0.4084826660893462,0.2073543958017796,0.4057358460095464,0.7909010616437028,72.75,41.5,39.8125,-0.0927734375,0.83203125,0.3544921875
1969/12/31/18:00:09.803000,27,1730346240,211104056,RU_myo,0.3999204380199301,0.2105197788050578,0.4156682208357333,0.7892813162447675,56.5,25.9375,31.875,-0.0205078125,0.828125,0.3984375
1969/12/31/18:00:09.826000,28,1730346240,233686635,RU_myo,0.3922353332614955,0.2152228112480599,0.4228157724093339,0.7880719557639542,49.3125,16.0,28.25,0.1142578125,0.880859375,0.4765625
1969/12/31/18:00:09.847000,29,1730346240,254880713,RU_myo,0.3863804654714485,0.2180943764817512,0.4284977673948765,0.7871052294240645,30.9375,16.4375,19.0,0.10302734375,0.98779296875,0.4521484375
1969/12/31/18:00:09.854000,30,1730346240,261627458,RU_myo,0.3834906341217424,0.2180824503767285,0.4312820023403202,0.7870011517373463,5.6875,12.8125,10.125,0.00048828125,0.94873046875,0.41796875
1969/12/31/18:00:09.869000,31,1730346240,276613960,RU_myo,0.3821612052313475,0.2178459258058903,0.4307477440213416,0.7880052962045515,-7.8125,2.3125,11.375,-0.03759765625,0.865234375,0.48095703125
1969/12/31/18:00:09.891000,32,1730346240,299153965,RU_myo,0.381304290008922,0.2190653268516121,0.4292191079466527,0.7889159513951204,-1.3125,-5.5625,10.5,0.017578125,0.76513671875,0.5537109375
1969/12/31/18:00:09.914000,33,1730346240,321693056,RU_myo,0.3806449336863479,0.2210865859223784,0.4298431082455519,0.7883305514046156,8.0,-6.0625,4.875,0.03759765625,0.81884765625,0.4921875
1969/12/31/18:00:09.929000,34,1730346240,336617038,RU_myo,0.3800169133948117,0.2235178183186316,0.43177636449645,0.7868901457574545,12.75,-6.8125,2.625,0.0302734375,0.9072265625,0.46875
1969/12/31/18:00:09.951000,35,1730346240,359215010,RU_myo,0.3790452385036394,0.2260843097290628,0.4329416870702599,0.7859847884398332,14.25,-6.5625,5.3125,0.06396484375,0.94384765625,0.57763671875
1969/12/31/18:00:09.969000,36,1730346240,376974422,RU_myo,0.3788097327172103,0.2271271375186496,0.4330126077821286,0.7857585706201496,8.0,-2.625,0.4375,0.0771484375,0.8828125,0.61669921875
1969/12/31/18:00:09.989000,37,1730346240,396649190,RU_myo,0.3794240045443345,0.2267632202191446,0.4326507954006183,0.7857666040056658,-2.0,0.75,-5.5625,0.0634765625,0.86572265625,0.5517578125
1969/12/31/18:00:10.011000,38,1730346240,419172771,RU_myo,0.3796656723528145,0.2262734159826179,0.4332583508617809,0.7854562494913211,5.375,3.5625,-5.75,0.05859375,0.88232421875,0.59326171875
1969/12/31/18:00:10.034000,39,1730346240,441799146,RU_myo,0.3795330777576407,0.2263281846776024,0.4352605946429295,0.7843968450085945,18.8125,4.375,-6.875,0.0712890625,0.8984375,0.65576171875
1969/12/31/18:00:10.049000,40,1730346240,456644524,RU_myo,0.3783797200484263,0.2252332903659772,0.4389912803013843,0.7831892543864103,27.375,16.3125,-8.375,0.076171875,0.84228515625,0.64794921875
1969/12/31/18:00:10.071000,41,1730346240,479275408,RU_myo,0.3761153116370829,0.2232765027537243,0.4458205511517776,0.7809794567342545,43.9375,26.9375,-9.9375,0.03369140625,0.81494140625,0.62353515625
1969/12/31/18:00:10.094000,42,1730346240,501829253,RU_myo,0.3736263550697697,0.2213923852047141,0.4554200678280595,0.7771623513720485,56.75,29.3125,-12.625,-0.0234375,0.80810546875,0.5302734375
1969/12/31/18:00:10.109000,43,1730346240,516792764,RU_myo,0.3716112603884567,0.2202932061008443,0.4651855150164962,0.7726437802229116,54.625,23.1875,-11.625,-0.07373046875,0.82177734375,0.42529296875
1969/12/31/18:00:10.131000,44,1730346240,539094371,RU_myo,0.3694028863005723,0.2204697992924103,0.4743885050112439,0.7680430466490584,51.8125,16.875,-7.875,-0.0673828125,0.90283203125,0.38720703125
1969/12/31/18:00:10.154000,45,1730346240,561766860,RU_myo,0.3678807551553349,0.2201668962743144,0.4816570497645176,0.7643276615322886,42.1875,16.0,-10.4375,-0.02685546875,0.921875,0.4365234375
1969/12/31/18:00:10.169000,46,1730346240,576703140,RU_myo,0.3672649029193058,0.2183935221281828,0.4864108378534066,0.7621189260180242,22.125,16.875,-13.8125,-0.01123046875,0.880859375,0.38818359375
1969/12/31/18:00:10.191000,47,1730346240,599197266,RU_myo,0.3672110209051435,0.2158341372873317,0.4894722700529166,0.7609129964434043,5.6875,15.75,-12.3125,-0.04541015625,0.84619140625,0.314453125
1969/12/31/18:00:10.214000,48,1730346240,621639097,RU_myo,0.367389645016882,0.2142445014137324,0.4918467784592183,0.7597439627056205,5.5,9.0,-9.0,-0.05810546875,0.82958984375,0.31689453125
1969/12/31/18:00:10.229000,49,1730346240,636750241,RU_myo,0.366967375303927,0.214430537166117,0.4946002398682169,0.758106254370388,16.75,4.1875,-5.1875,-0.0263671875,0.830078125,0.36865234375
1969/12/31/18:00:10.251000,50,1730346240,659192454,RU_myo,0.3662898471496241,0.2149152727568449,0.4977049514510974,0.756262490615538,21.625,4.8125,-5.0625,-0.01123046875,0.84521484375,0.39892578125
1969/12/31/18:00:10.274000,51,1730346240,681607223,RU_myo,0.3654271276053877,0.2150325322454954,0.5009897884391219,0.7544754842709533,21.1875,7.0625,-4.3125,-0.02978515625,0.8466796875,0.38623046875
1969/12/31/18:00:10.289000,52,1730346240,696661312,RU_myo,0.3644711477306545,0.2152278122422186,0.503825967738875,0.752992141752697,19.875,5.8125,-1.5625,-0.044921875,0.8505859375,0.3984375
1969/12/31/18:00:10.311000,53,1730346240,719246906,RU_myo,0.3634281959189891,0.2160792431228118,0.5063212773174363,0.7515773221952492,19.4375,3.625,-0.75,-0.01806640625,0.90673828125,0.4111328125
1969/12/31/18:00:10.334000,54,1730346240,741532809,RU_myo,0.3625119312581732,0.2160788409924117,0.5083346293177415,0.7506603351764631,13.1875,6.375,-1.6875,-0.02587890625,0.94482421875,0.41455078125
1969/12/31/18:00:10.349000,55,1730346240,756719191,RU_myo,0.3625018450843545,0.2147300035370869,0.5096633114083786,0.7501511493663442,5.0,7.0,-4.4375,-0.08544921875,0.9375,0.40283203125
1969/12/31/18:00:10.371000,56,1730346240,779210286,RU_myo,0.362929265262837,0.2133872706624416,0.5106401333987376,0.7496631745641041,3.875,4.9375,-5.625,-0.08203125,0.89453125,0.40283203125
1969/12/31/18:00:10.397000,57,1730346240,804561413,RU_myo,0.362762172303777,0.2126031711482509,0.511395167349999,0.7494521204014428,6.875,5.75,-3.9375,-0.0361328125,0.87158203125,0.43408203125
1969/12/31/18:00:10.409000,58,1730346240,816722831,RU_myo,0.3617086665625628,0.2125328344533992,0.5130208137796727,0.7488700016969428,13.125,6.875,-0.0625,-0.03369140625,0.8427734375,0.3984375
1969/12/31/18:00:10.431000,59,1730346240,839254758,RU_myo,0.3602541176550303,0.2130882962951051,0.5160875236823588,0.7473045005846384,18.1875,5.625,1.75,-0.06591796875,0.9140625,0.33642578125
1969/12/31/18:00:10.449000,60,1730346240,857066648,RU_myo,0.3596341400145706,0.2133878060914696,0.5190646175634605,0.745453454174805,16.625,3.375,-2.4375,-0.08349609375,0.984375,0.34716796875
1969/12/31/18:00:10.469000,61,1730346240,876702911,RU_myo,0.3598227025212493,0.2130858446991826,0.5203542899056235,0.7445491646063104,9.6875,2.5625,-5.375,-0.0517578125,0.90234375,0.39599609375
1969/12/31/18:00:10.491000,62,1730346240,899236073,RU_myo,0.3594616657564004,0.2131499638005349,0.5209111658286841,0.7443157670629218,5.625,2.5625,-0.875,-0.03369140625,0.876953125,0.375
1969/12/31/18:00:10.509000,63,1730346240,917080493,RU_myo,0.359151991506812,0.2127810745059053,0.521637137902314,0.7440623345458938,3.625,3.375,-0.25,-0.06884765625,0.90234375,0.35400390625
1969/12/31/18:00:10.529000,64,1730346240,936670925,RU_myo,0.3592097794943384,0.2121077287583391,0.5230973339450263,0.74320106629109,6.875,3.625,-3.8125,-0.0927734375,0.94482421875,0.3642578125
1969/12/31/18:00:10.551000,65,1730346240,959188914,RU_myo,0.359335743674558,0.2118048293784128,0.5245068872762829,0.7422324856603747,10.0,1.875,-2.75,-0.09521484375,0.8798828125,0.36962890625
1969/12/31/18:00:10.569000,66,1730346240,977174202,RU_myo,0.3592664039967574,0.2117999357575175,0.5259596675569247,0.7412387377058482,7.625,1.25,-2.0,-0.08837890625,0.9130859375,0.32666015625
1969/12/31/18:00:10.589000,67,1730346240,996736390,RU_myo,0.3594621311605929,0.2113800917318956,0.528358669948394,0.7395556429175996,12.8125,2.8125,-5.6875,-0.1103515625,0.94189453125,0.33056640625
1969/12/31/18:00:10.611000,68,1730346241,19140335,RU_myo,0.3600730227471705,0.2111362240519517,0.530678904859112,0.7376644312425084,15.125,0.4375,-6.5625,-0.119140625,0.87451171875,0.341796875
1969/12/31/18:00:10.629000,69,1730346241,37036279,RU_myo,0.3606086957820938,0.2116775485735107,0.5320015897827911,0.736293618351286,10.1875,-3.75,-2.6875,-0.10791015625,0.9482421875,0.34716796875
1969/12/31/18:00:10.649000,70,1730346241,56662241,RU_myo,0.3621347281556981,0.2105178960743305,0.5321848465851226,0.7357444822499217,-6.6875,-1.625,-8.5,-0.13525390625,1.119140625,0.33642578125
1969/12/31/18:00:10.671000,71,1730346241,78876518,RU_myo,0.3661565739218836,0.2065467321473002,0.5312596798493208,0.7355480700671145,-19.4375,0.4375,-23.6875,-0.1689453125,1.0693359375,0.35791015625
1969/12/31/18:00:10.689000,72,1730346241,96790096,RU_myo,0.3715470226234323,0.2021015593734491,0.5282352445840617,0.7362576288621392,-27.375,-3.5625,-29.1875,-0.1240234375,0.91943359375,0.40771484375
1969/12/31/18:00:10.709000,73,1730346241,116590489,RU_myo,0.3758861756738654,0.1981368181613133,0.5239089064320862,0.7382214044494525,-30.125,-1.625,-23.875,-0.06396484375,0.92041015625,0.48828125
1969/12/31/18:00:10.731000,74,1730346241,139205618,RU_myo,0.3792853875141519,0.1920841832164525,0.520220366556665,0.7406868647383703,-36.8125,11.6875,-26.0625,-0.07958984375,1.0390625,0.48388671875
1969/12/31/18:00:10.749000,75,1730346241,156958280,RU_myo,0.3835675777627352,0.1828110909292476,0.5168151942897962,0.7432079609864837,-45.75,21.25,-34.1875,-0.17431640625,1.0126953125,0.46142578125
1969/12/31/18:00:10.769000,76,1730346241,176664795,RU_myo,0.388445670534003,0.1732868099695214,0.5130241767502035,0.7455788600837283,-45.6875,18.6875,-35.9375,-0.19970703125,0.8701171875,0.4541015625
1969/12/31/18:00:10.791000,77,1730346241,199172315,RU_myo,0.3926585284004772,0.1654744707747076,0.5091803892300297,0.7477785840874005,-35.1875,15.8125,-31.1875,-0.14697265625,0.75,0.50830078125
1969/12/31/18:00:10.809000,78,1730346241,216958664,RU_myo,0.3946167661232458,0.1586402127075508,0.506318031708016,0.7501686087632933,-27.6875,21.5,-21.5,-0.11865234375,0.7548828125,0.51611328125
1969/12/31/18:00:10.829000,79,1730346241,236753699,RU_myo,0.3944900709744185,0.1513748067486551,0.5048471881524703,0.752723434203393,-24.6875,32.375,-15.0625,-0.1279296875,0.794921875,0.48974609375
1969/12/31/18:00:10.851000,80,1730346241,259228414,RU_myo,0.3934425502785367,0.1434972751636425,0.504712449310149,0.7549018712139223,-19.125,39.125,-12.9375,-0.17236328125,0.79443359375,0.48291015625
1969/12/31/18:00:10.869000,81,1730346241,277038620,RU_myo,0.3917503652582984,0.1359956082573214,0.5055886998183992,0.7565823897439403,-12.75,40.75,-9.625,-0.19140625,0.75927734375,0.45166015625
1969/12/31/18:00:10.890000,82,1730346241,298092923,RU_myo,0.3890531585987599,0.1295826569979867,0.5074659492610747,0.7578418602388144,-5.9375,40.4375,-4.25,-0.189453125,0.73583984375,0.4140625
1969/12/31/18:00:10.911000,83,1730346241,319210712,RU_myo,0.385536453717565,0.1245241237466486,0.510426824886998,0.7584984125862038,4.0625,38.8125,1.3125,-0.19384765625,0.70556640625,0.3935546875
1969/12/31/18:00:10.929000,84,1730346241,336907801,RU_myo,0.3811736849289624,0.1212187251031095,0.5144776605710527,0.7585020628682492,14.625,36.3125,6.9375,-0.17724609375,0.70556640625,0.3779296875
1969/12/31/18:00:10.950000,85,1730346241,358101132,RU_myo,0.3761753831761477,0.119450790990706,0.519247766457811,0.7580272730268666,18.75,31.9375,11.8125,-0.181640625,0.78759765625,0.34033203125
1969/12/31/18:00:10.971000,86,1730346241,379176094,RU_myo,0.3708624582015326,0.1181681565303106,0.5230894119136166,0.7582049795555362,12.0,28.375,17.0625,-0.2119140625,0.8759765625,0.34130859375
1969/12/31/18:00:10.989000,87,1730346241,397053437,RU_myo,0.3662221732324894,0.1168859102900362,0.5254067445308782,0.7590564910532065,4.625,23.4375,18.25,-0.228515625,0.8662109375,0.35888671875
1969/12/31/18:00:11.010000,88,1730346241,418166109,RU_myo,0.3618990715640468,0.1159737284485898,0.5262765719388113,0.7606655810138558,-0.75,19.5625,18.8125,-0.19140625,0.82373046875,0.37890625
1969/12/31/18:00:11.031000,89,1730346241,439194939,RU_myo,0.3577477477653342,0.1154851968558287,0.5263976414823823,0.7626173623238502,-4.8125,16.375,20.0,-0.18310546875,0.83935546875,0.3818359375
1969/12/31/18:00:11.049000,90,1730346241,457137020,RU_myo,0.3535972988134696,0.1158514885461704,0.5266420670054575,0.7643268385538177,-0.6875,12.6875,22.0,-0.1806640625,0.85595703125,0.4013671875
1969/12/31/18:00:11.070000,91,1730346241,478067082,RU_myo,0.3495711730105798,0.1169509983391428,0.5269509231011587,0.7657970903772892,3.125,10.0,22.0,-0.15185546875,0.83837890625,0.4111328125
1969/12/31/18:00:11.091000,92,1730346241,499125078,RU_myo,0.3451099415877286,0.118230979281116,0.5274920614080564,0.7672500823766799,2.75,10.6875,23.5625,-0.1357421875,0.85009765625,0.38818359375
1969/12/31/18:00:11.109000,93,1730346241,517145495,RU_myo,0.3408909083649256,0.1193270771447501,0.5279689091059278,0.7686372800428842,0.1875,10.4375,21.8125,-0.13671875,0.892578125,0.365234375
1969/12/31/18:00:11.130000,94,1730346241,538191250,RU_myo,0.3368122653646517,0.1206127285901688,0.5286573088661197,0.769760688385941,4.125,8.9375,22.375,-0.14990234375,0.86181640625,0.384765625
1969/12/31/18:00:11.151000,95,1730346241,559199760,RU_myo,0.332663822403372,0.1224447023378283,0.5296984680397179,0.7705592833064528,7.6875,7.1875,24.4375,-0.1513671875,0.8447265625,0.37548828125
1969/12/31/18:00:11.169000,96,1730346241,577081831,RU_myo,0.3285076094701212,0.1242127434544215,0.530299909155781,0.7716449644967062,4.5,6.625,24.8125,-0.14892578125,0.90087890625,0.3837890625
1969/12/31/18:00:11.190000,97,1730346241,597977371,RU_myo,0.3249089362812816,0.125739697302168,0.530548276189536,0.7727497902162362,1.3125,5.75,21.0,-0.13720703125,0.94921875,0.40234375
1969/12/31/18:00:11.211000,98,1730346241,619158406,RU_myo,0.3219789017154671,0.1268383237468702,0.529937597098329,0.7742142918216085,-2.4375,4.75,17.8125,-0.1181640625,0.89306640625,0.41162109375
1969/12/31/18:00:11.229000,99,1730346241,637132718,RU_myo,0.3190406634249284,0.1280557321342069,0.5291301915497809,0.7757809129770118,-4.5625,3.625,19.125,-0.1181640625,0.87841796875,0.38525390625
1969/12/31/18:00:11.252000,100,1730346241,659537267,RU_myo,0.3160516400410331,0.1293992809746987,0.5288890422857382,0.7769450224183683,-1.4375,3.5625,19.25,-0.1298828125,0.9248046875,0.3916015625
1969/12/31/18:00:11.271000,101,1730346241,679117448,RU_myo,0.313431012138895,0.1308658403166097,0.5294451021018063,0.777382155910607,6.375,3.25,15.1875,-0.109375,0.9013671875,0.41455078125
1969/12/31/18:00:11.289000,102,1730346241,696913113,RU_myo,0.3108003009119831,0.132938541906186,0.5304113540701362,0.7774280111382421,9.25,1.25,14.8125,-0.07958984375,0.8740234375,0.3798828125
1969/12/31/18:00:11.311000,103,1730346241,718826208,RU_myo,0.3076302511680537,0.1358089898509761,0.5315167117403594,0.7774377994300594,8.9375,-0.0625,19.0625,-0.0732421875,0.931640625,0.35205078125
1969/12/31/18:00:11.332000,104,1730346241,739848579,RU_myo,0.3047086731480032,0.1383152751108524,0.5318973112603566,0.7778860838537967,2.75,-0.5,18.25,-0.06884765625,0.95556640625,0.35009765625
1969/12/31/18:00:11.348000,105,1730346241,756254414,RU_myo,0.3022562295387298,0.1403855670313163,0.5316340386272893,0.778651599399349,2.75,-0.625,16.625,-0.0654296875,0.8818359375,0.39501953125
1969/12/31/18:00:11.371000,106,1730346241,779254189,RU_myo,0.2993998256698964,0.1430160635157119,0.5321442773068618,0.7789278645002137,9.0625,-1.25,18.625,-0.056640625,0.84228515625,0.373046875
1969/12/31/18:00:11.392000,107,1730346241,799867727,RU_myo,0.2960930759513688,0.1458797055295344,0.533345969421369,0.7788389299401086,10.5,-0.3125,21.1875,-0.0732421875,0.9375,0.3515625
1969/12/31/18:00:11.408000,108,1730346241,816288429,RU_myo,0.2935365844716088,0.1478975138645681,0.5339081938808823,0.7790408458330513,4.625,-0.1875,17.0625,-0.083984375,0.9873046875,0.3720703125
1969/12/31/18:00:11.431000,109,1730346241,838753092,RU_myo,0.2919411271206662,0.149663316684063,0.5333434181016896,0.7796897256615911,-0.875,-2.9375,13.125,-0.06494140625,0.919921875,0.375
1969/12/31/18:00:11.452000,110,1730346241,859849589,RU_myo,0.2907317797903755,0.1515614128111489,0.5320824951569816,0.7806358874111091,-5.875,-5.4375,12.25,-0.04833984375,0.9375,0.375
1969/12/31/18:00:11.468000,111,1730346241,876393613,RU_myo,0.2897479116385095,0.152778391158877,0.5300549535851732,0.7821423509028568,-10.9375,-4.3125,11.3125,-0.0546875,0.93505859375,0.39453125
1969/12/31/18:00:11.491000,112,1730346241,898750351,RU_myo,0.2888357732990777,0.1538789062736633,0.5285963222252774,0.7832503472049377,-7.25,-3.25,9.25,-0.046875,0.927734375,0.3974609375
1969/12/31/18:00:11.505000,113,1730346241,913028535,RU_myo,0.2879260935541231,0.1549807826020603,0.5275694777588056,0.7840599261612702,-3.5,-2.5,8.5625,-0.0439453125,0.88623046875,0.40087890625
1969/12/31/18:00:11.528000,114,1730346241,936207367,RU_myo,0.2870687968699038,0.1563221749487186,0.5271982136009694,0.7843576525150466,-0.5,-4.0625,8.75,-0.05908203125,0.91796875,0.384765625
1969/12/31/18:00:11.551000,115,1730346241,958755454,RU_myo,0.2866403252710358,0.1578475045040244,0.5268908193653281,0.7844154216478026,-1.5,-6.25,7.6875,-0.06640625,0.94140625,0.36083984375
1969/12/31/18:00:11.572000,116,1730346241,979728798,RU_myo,0.2863995722215531,0.1589481001843402,0.525493162245386,0.7852182645051278,-6.4375,-5.375,5.5625,-0.03173828125,0.9248046875,0.404296875
1969/12/31/18:00:11.588000,117,1730346241,996227148,RU_myo,0.2860163861652677,0.1599763013527884,0.5239971564722202,0.7861483256100403,-5.5625,-4.0625,5.5,-0.01318359375,0.90283203125,0.4248046875
1969/12/31/18:00:11.611000,118,1730346242,18674593,RU_myo,0.28560736300964,0.1605358761947752,0.5223214800755481,0.7872972361825896,-8.9375,-3.0,6.75,-0.04443359375,0.904296875,0.40771484375
1969/12/31/18:00:11.625000,119,1730346242,33225388,RU_myo,0.2852931334684773,0.1608359877384334,0.5207789933147302,0.7883710123831522,-10.625,-2.3125,5.8125,-0.04833984375,0.91748046875,0.3916015625
1969/12/31/18:00:11.648000,120,1730346242,56181558,RU_myo,0.2851695757662931,0.1611403424706793,0.5195555284509177,0.7891604120467475,-7.5625,-2.375,3.8125,-0.04248046875,0.90185546875,0.39990234375
1969/12/31/18:00:11.671000,121,1730346242,78728035,RU_myo,0.2846268200136065,0.1619375838507609,0.5188350783005908,0.7896669891734993,-1.5625,-2.1875,5.5625,-0.029296875,0.85693359375,0.408203125
1969/12/31/18:00:11.685000,122,1730346242,93155119,RU_myo,0.2835753469199888,0.1629673216264249,0.5190539712026657,0.7896895907126164,4.6875,-1.0,7.625,-0.03271484375,0.86767578125,0.4013671875
1969/12/31/18:00:11.708000,123,1730346242,116230055,RU_myo,0.2823017385760273,0.1637655274809689,0.519740390048621,0.7895292948066839,6.875,0.8125,7.8125,-0.04638671875,0.900390625,0.41259765625
1969/12/31/18:00:11.731000,124,1730346242,138784248,RU_myo,0.2810223562261336,0.1645604414391086,0.5201721372196156,0.7895360942191655,4.25,0.5,8.4375,-0.044921875,0.90625,0.39892578125
1969/12/31/18:00:11.752000,125,1730346242,159836391,RU_myo,0.2801553425165665,0.1652855484825407,0.5197217301805149,0.7899892370788497,-1.5,-1.3125,7.8125,-0.03857421875,0.904296875,0.40283203125
1969/12/31/18:00:11.768000,126,1730346242,176369851,RU_myo,0.2797410127487162,0.1659035724745823,0.5191353509552328,0.7903919646701129,-2.6875,-2.8125,6.0625,-0.046875,0.90380859375,0.39599609375
1969/12/31/18:00:11.791000,127,1730346242,198791782,RU_myo,0.2795518772413783,0.1665103757891878,0.5186969110910988,0.7906190973597321,-3.8125,-3.8125,5.8125,-0.06591796875,0.921875,0.37841796875
1969/12/31/18:00:11.812000,128,1730346242,219838454,RU_myo,0.2798605071861731,0.1672448832475713,0.518092908396126,0.7907508987125133,-3.1875,-5.9375,3.8125,-0.056640625,0.88330078125,0.37744140625
1969/12/31/18:00:11.828000,129,1730346242,236173043,RU_myo,0.279922480946872,0.1689545196818451,0.518338793763811,0.7902041950148725,5.3125,-8.3125,3.875,-0.02880859375,0.87939453125,0.39013671875
1969/12/31/18:00:11.851000,130,1730346242,258728050,RU_myo,0.2795595403399282,0.1709708018541788,0.5198098352696133,0.7889316722475049,16.375,-6.5,3.375,-0.0087890625,0.88623046875,0.42724609375
1969/12/31/18:00:11.872000,131,1730346242,279825198,RU_myo,0.2791901470982317,0.1728000232695876,0.5216351108660884,0.7874578241614095,14.3125,-4.5625,0.3125,0.02099609375,0.8779296875,0.3486328125
1969/12/31/18:00:11.888000,132,1730346242,296234197,RU_myo,0.278886456492434,0.1743879637117277,0.523835318366835,0.7857529775502524,17.875,-2.0625,-4.6875,0.07177734375,1.14111328125,0.48876953125
1969/12/31/18:00:11.911000,133,1730346242,318869041,RU_myo,0.2781472736957061,0.1745668647728153,0.5263862383918738,0.78426910680626,21.75,6.0,-5.75,0.04638671875,1.126953125,0.53759765625
1969/12/31/18:00:11.933000,134,1730346242,341161614,RU_myo,0.2793035778970983,0.1710246121651375,0.522839695862444,0.7870061917406437,-25.0,10.5625,-10.4375,0.01318359375,0.849609375,0.46044921875
1969/12/31/18:00:11.948000,135,1730346242,355663208,RU_myo,0.2804710879885403,0.1695034192261537,0.5215724585118775,0.787760579233972,-17.4375,2.375,-8.3125,-0.01123046875,0.88037109375,0.28857421875
1969/12/31/18:00:11.971000,136,1730346242,378743093,RU_myo,0.280844290781673,0.1696297074727818,0.5235997231743516,0.7862541424817932,12.5625,0.8125,-7.8125,0.0078125,0.9013671875,0.3740234375
1969/12/31/18:00:11.992000,137,1730346242,399798327,RU_myo,0.2802925141088719,0.1692620081933584,0.5253043067118798,0.7853928090241409,13.0,7.0625,-5.6875,0.0361328125,0.83984375,0.404296875
1969/12/31/18:00:12.008000,138,1730346242,415690666,RU_myo,0.2796737105654062,0.1690127683447424,0.5263871846172116,0.7849419288239031,3.375,5.3125,-2.3125,0.013671875,0.72607421875,0.2587890625
1969/12/31/18:00:12.031000,139,1730346242,438818799,RU_myo,0.2800518815500103,0.1702407797826893,0.5261044392065254,0.7847312530965415,-10.125,-7.375,1.3125,-0.01513671875,0.83837890625,0.1796875
1969/12/31/18:00:12.052000,140,1730346242,459816275,RU_myo,0.2813285074129388,0.1729233372750825,0.5242024781215705,0.7849608603450624,-24.875,-19.375,4.6875,-0.025390625,1.03271484375,0.150390625
1969/12/31/18:00:12.068000,141,1730346242,475583329,RU_myo,0.287919035983371,0.1749976417562697,0.5152877892244261,0.788008215930744,-83.4375,-41.875,-8.125,-0.0576171875,1.09912109375,0.01123046875
1969/12/31/18:00:12.091000,142,1730346242,498759778,RU_myo,0.3018923356079654,0.1781689704083403,0.492879217556474,0.7963585326884602,-145.0625,-85.0625,-16.4375,-0.09375,0.95751953125,-0.2001953125
1969/12/31/18:00:12.112000,143,1730346242,519839206,RU_myo,0.3197249260453754,0.1836678698874636,0.4642664733679124,0.8052941865820232,-176.375,-115.8125,-21.125,-0.0166015625,0.9892578125,-0.21630859375
1969/12/31/18:00:12.128000,144,1730346242,535689392,RU_myo,0.3416387835280872,0.1898332350852869,0.4308176762803715,0.8134140484715543,-195.9375,-138.6875,-36.6875,0.1298828125,0.810546875,-0.0166015625
1969/12/31/18:00:12.151000,145,1730346242,558806895,RU_myo,0.3656341971401561,0.1971006381578571,0.3947506432229365,0.8195333440406906,-198.8125,-154.125,-46.6875,0.30517578125,0.537109375,0.1357421875
1969/12/31/18:00:12.173000,146,1730346242,581292325,RU_myo,0.387649606846048,0.207649813020037,0.3592060992424803,0.8231526685444502,-178.8125,-165.1875,-37.5,0.455078125,0.3759765625,0.24365234375
1969/12/31/18:00:12.188000,147,1730346242,595585564,RU_myo,0.4057287288974695,0.2224885236695165,0.3288801551526351,0.8232380572649574,-131.5,-169.125,-24.625,0.5234375,0.34521484375,0.376953125
1969/12/31/18:00:12.211000,148,1730346242,618786528,RU_myo,0.4213392271993806,0.2423173594062785,0.3051245540735482,0.8189350154040402,-76.5,-179.0625,-21.0625,0.50244140625,0.36376953125,0.4345703125
1969/12/31/18:00:12.233000,149,1730346242,641157044,RU_myo,0.4348308505798808,0.2675271782834948,0.2853501160108005,0.8111267789663161,-35.8125,-196.5625,-15.125,0.45751953125,0.36376953125,0.4638671875
1969/12/31/18:00:12.254000,150,1730346242,662240104,RU_myo,0.4449582778070089,0.2975544038832878,0.2670360034850019,0.801352157658192,-9.0,-213.0,1.6875,0.4736328125,0.3955078125,0.431640625
1969/12/31/18:00:12.271000,151,1730346242,678831636,RU_myo,0.4518795510109221,0.3315085561988812,0.2477005562612889,0.7902856337887895,2.0625,-230.3125,20.75,0.56005859375,0.46728515625,0.36767578125
1969/12/31/18:00:12.293000,152,1730346242,701258097,RU_myo,0.4576782525211877,0.365996105910515,0.2262144043536305,0.7780774453037583,-3.25,-239.6875,28.5625,0.6376953125,0.6796875,0.49365234375
1969/12/31/18:00:12.315000,153,1730346242,722309664,RU_myo,0.4650454673298863,0.4004066499125941,0.1997150241637207,0.7638855523866029,-27.9375,-258.9375,27.9375,0.6201171875,0.75439453125,0.40625
1969/12/31/18:00:12.338000,154,1730346242,746404009,RU_myo,0.4744555002061398,0.4375269555483868,0.164072608330645,0.7460176410034017,-60.375,-305.5,32.4375,0.76953125,0.63818359375,0.35546875
1969/12/31/18:00:12.353000,155,1730346242,761278854,RU_myo,0.4836713900263776,0.4759805021991031,0.124274981081992,0.7239200764402876,-67.9375,-333.875,31.8125,0.93994140625,0.623046875,0.49658203125
1969/12/31/18:00:12.375000,156,1730346242,782325187,RU_myo,0.4904438801644527,0.5165072948290726,0.0849655110378242,0.6967538135752617,-48.8125,-353.4375,27.5,1.02587890625,0.521484375,0.443359375
1969/12/31/18:00:12.391000,157,1730346242,799137869,RU_myo,0.4944744972409354,0.5575885115783169,0.0484036879782819,0.6650166210887534,-24.3125,-362.25,16.9375,1.06201171875,0.4306640625,0.4912109375
1969/12/31/18:00:12.413000,158,1730346242,821117657,RU_myo,0.493260632347563,0.5987980204590513,0.0157482048194123,0.6307827465263849,8.6875,-359.0625,16.4375,1.1298828125,0.376953125,0.408203125
1969/12/31/18:00:12.434000,159,1730346242,842339957,RU_myo,0.4864631256480928,0.6383226308692289,-0.0147098636488319,0.5963903639532641,31.0,-348.3125,29.1875,1.15478515625,0.41015625,0.3779296875
1969/12/31/18:00:12.451000,160,1730346242,858802714,RU_myo,0.4770054424494402,0.6726295554437405,-0.042664978153827,0.564105476534578,35.3125,-317.3125,35.625,1.26708984375,0.49853515625,0.345703125
1969/12/31/18:00:12.481000,161,1730346242,888773587,RU_myo,0.469336532017176,0.7006170782277471,-0.0695245558548008,0.5329402082249921,16.125,-292.25,32.4375,1.21875,0.5966796875,0.44482421875
1969/12/31/18:00:12.494000,162,1730346242,902387688,RU_myo,0.4640576963981149,0.7222405263026298,-0.0966201937916896,0.5036701447688077,-10.1875,-265.75,35.4375,1.2255859375,0.67724609375,0.40234375
1969/12/31/18:00:12.511000,163,1730346242,918693952,RU_myo,0.463808738036868,0.7362711944912145,-0.1218878865455488,0.4774196537602818,-43.75,-224.5625,25.75,1.16015625,0.65966796875,0.40380859375
1969/12/31/18:00:12.533000,164,1730346242,941351585,RU_myo,0.4699304833903832,0.7428917928749648,-0.1437441600707043,0.4545489426949193,-78.5,-177.375,8.375,1.10986328125,0.63671875,0.421875
1969/12/31/18:00:12.555000,165,1730346242,962444815,RU_myo,0.4798724273365744,0.743063715389908,-0.159916784485096,0.4381841968772917,-91.6875,-114.0625,-3.1875,1.09326171875,0.6220703125,0.4013671875
1969/12/31/18:00:12.571000,166,1730346242,978802716,RU_myo,0.4898887338185391,0.7386174393144955,-0.1712718399071543,0.4302548822186496,-71.1875,-74.125,-3.125,0.94287109375,0.5107421875,0.34033203125
1969/12/31/18:00:12.593000,167,1730346243,1390600,RU_myo,0.4959222919449417,0.7353077970536261,-0.1781047689717341,0.4262185064186496,-37.375,-50.0625,-4.25,0.85986328125,0.435546875,0.341796875
1969/12/31/18:00:12.614000,168,1730346243,22397017,RU_myo,0.4975233180749486,0.7343519862298744,-0.179879918827981,0.4252539512977754,0.375,-28.9375,-7.8125,0.875,0.4560546875,0.26416015625
1969/12/31/18:00:12.631000,169,1730346243,38769656,RU_myo,0.4959551380255325,0.7345629699691394,-0.1775061589388613,0.4277117110332192,25.375,-0.9375,-7.875,0.9013671875,0.4970703125,0.1181640625
1969/12/31/18:00:12.653000,170,1730346243,61357337,RU_myo,0.4909850677143663,0.7364776015715495,-0.1724307330051075,0.4322060249235987,49.5625,13.875,-2.3125,0.8662109375,0.5537109375,0.01513671875
1969/12/31/18:00:12.676000,171,1730346243,83689865,RU_myo,0.4862971424662302,0.7382658388513939,-0.1668804302124605,0.4366114547584969,48.0,17.4375,-3.25,0.88427734375,0.59228515625,-0.02197265625
1969/12/31/18:00:12.692000,172,1730346243,99530034,RU_myo,0.4847479160184422,0.7376200661146908,-0.1635154453555032,0.4406799236531293,21.5,19.6875,-1.8125,0.931640625,0.60009765625,-0.0439453125
1969/12/31/18:00:12.713000,173,1730346243,121385505,RU_myo,0.4849355341569634,0.7364672316095559,-0.1605261743024309,0.4434917043655754,5.875,23.6875,-3.5,0.8720703125,0.625,-0.15478515625
1969/12/31/18:00:12.734000,174,1730346243,142424237,RU_myo,0.4838436589409411,0.7358061446364382,-0.1578427781028477,0.4467329052338524,9.4375,25.0625,-4.125,0.8525390625,0.5146484375,-0.19287109375
1969/12/31/18:00:12.751000,175,1730346243,158923508,RU_myo,0.4799525925081399,0.7358906848884821,-0.1541244176628581,0.4520575988954958,28.8125,30.0,-0.125,0.8896484375,0.462890625,-0.16259765625
1969/12/31/18:00:12.773000,176,1730346243,181133843,RU_myo,0.4740142681858773,0.736779066607227,-0.1491136823561805,0.4585108398934213,42.3125,38.125,6.875,0.8837890625,0.5283203125,-0.2197265625
1969/12/31/18:00:12.795000,177,1730346243,203018619,RU_myo,0.4677984308839687,0.7378934278387653,-0.143440280868649,0.4648685868492048,46.4375,37.9375,7.1875,0.8330078125,0.541015625,-0.2041015625
1969/12/31/18:00:12.810000,178,1730346243,218210842,RU_myo,0.4601028162712489,0.7397169050664986,-0.1375181274952406,0.4713948063230108,55.6875,36.0,9.1875,0.818359375,0.5068359375,-0.1962890625
1969/12/31/18:00:12.833000,179,1730346243,241354398,RU_myo,0.4517335848421675,0.7421468258473064,-0.130985038923293,0.4774911274449772,60.3125,36.25,10.1875,0.79248046875,0.5419921875,-0.23876953125
1969/12/31/18:00:12.854000,180,1730346243,262342778,RU_myo,0.4438642447043661,0.7456333351634402,-0.12427222252724,0.4812191563874068,55.875,31.3125,7.125,0.7412109375,0.607421875,-0.3623046875
1969/12/31/18:00:12.870000,181,1730346243,278142747,RU_myo,0.436485880504865,0.7497351517607687,-0.119940533518677,0.4826919791682943,44.875,16.6875,5.4375,0.787109375,0.55126953125,-0.42138671875
1969/12/31/18:00:12.893000,182,1730346243,301137553,RU_myo,0.4297105568915589,0.7533973584818909,-0.1174989804000356,0.4836685302285103,37.625,7.8125,8.875,0.83154296875,0.55029296875,-0.376953125
1969/12/31/18:00:12.915000,183,1730346243,322339309,RU_myo,0.425262729707723,0.7562193136714485,-0.1152427204949305,0.483738644026655,28.125,3.3125,4.875,0.8115234375,0.58642578125,-0.30517578125
1969/12/31/18:00:12.930000,184,1730346243,338119159,RU_myo,0.4235960579649644,0.7582613585156706,-0.1144441799256928,0.4821914780869192,10.0625,-4.5625,1.8125,0.8037109375,0.61328125,-0.2919921875
1969/12/31/18:00:12.953000,185,1730346243,361155469,RU_myo,0.4245289103273194,0.758475375949284,-0.1164021038093742,0.4805630641275321,-12.1875,-7.75,4.75,0.822265625,0.5810546875,-0.24609375
1969/12/31/18:00:12.975000,186,1730346243,382407743,RU_myo,0.4267246181966173,0.7570684364887204,-0.1197587900016826,0.4800117862248889,-23.625,-4.8125,5.0,0.8359375,0.48388671875,-0.18798828125
1969/12/31/18:00:12.990000,187,1730346243,398111379,RU_myo,0.4276918198568565,0.7558920361220652,-0.1234794564821493,0.4800622467781043,-19.375,-4.0,5.5625,0.8486328125,0.38818359375,-0.19140625
1969/12/31/18:00:13.013000,188,1730346243,421264108,RU_myo,0.4262866213002587,0.7557676038000863,-0.1262257635808898,0.4807932010283702,-4.1875,-3.0625,8.375,0.83544921875,0.36669921875,-0.197265625
1969/12/31/18:00:13.035000,189,1730346243,442389560,RU_myo,0.4230472333941037,0.756553232999555,-0.12707896983502,0.4821920565305756,12.8125,0.8125,11.375,0.8154296875,0.439453125,-0.19580078125
1969/12/31/18:00:13.058000,190,1730346243,466313155,RU_myo,0.4199360915788632,0.75771608152035,-0.1262860135867249,0.4832927286513719,19.3125,2.3125,9.3125,0.806640625,0.53369140625,-0.1904296875
1969/12/31/18:00:13.073000,191,1730346243,481274945,RU_myo,0.4181130282760407,0.7585852139291436,-0.1256780620759661,0.4836682680378608,12.1875,0.0625,6.75,0.82666015625,0.57177734375,-0.19482421875
1969/12/31/18:00:13.095000,192,1730346243,502383640,RU_myo,0.4173887557425423,0.7587221751798481,-0.1260467652249707,0.4839829547064372,3.1875,-0.8125,5.875,0.8369140625,0.5380859375,-0.1767578125
1969/12/31/18:00:13.117000,193,1730346243,524958726,RU_myo,0.4172643997618461,0.7585349174722735,-0.1266564700856979,0.4842244709348632,-1.5625,-0.0625,2.625,0.849609375,0.49755859375,-0.18603515625
1969/12/31/18:00:13.133000,194,1730346243,541299049,RU_myo,0.4168753686284197,0.7586155134235182,-0.1273209398182845,0.4842590299704074,-1.5,-0.5625,0.625,0.85888671875,0.4658203125,-0.2119140625
1969/12/31/18:00:13.156000,195,1730346243,563749449,RU_myo,0.4157950710174753,0.7590152243250596,-0.1276927904533996,0.4844635171264976,3.1875,-0.375,1.125,0.849609375,0.44970703125,-0.20849609375
1969/12/31/18:00:13.171000,196,1730346243,578810851,RU_myo,0.4140778996666567,0.7597938819355163,-0.1277513331371333,0.484698201835631,7.4375,-0.6875,2.0625,0.837890625,0.4541015625,-0.220703125
1969/12/31/18:00:13.193000,197,1730346243,601390495,RU_myo,0.4121871491646426,0.7607730826577973,-0.1275686571529843,0.4848219348163418,9.4375,-1.25,1.9375,0.8349609375,0.462890625,-0.2216796875
1969/12/31/18:00:13.216000,198,1730346243,623898283,RU_myo,0.4104208651292898,0.7616957132582403,-0.1275088023877285,0.484887470640553,8.1875,-1.0,2.3125,0.84228515625,0.47119140625,-0.23095703125
1969/12/31/18:00:13.231000,199,1730346243,639297919,RU_myo,0.4090773205759128,0.7624268593425436,-0.1276916972015532,0.4848255979311363,5.0,-0.6875,2.9375,0.83984375,0.48583984375,-0.2451171875
1969/12/31/18:00:13.253000,200,1730346243,661289238,RU_myo,0.4084084098609506,0.7628588113050606,-0.1279366353412871,0.4846454602146088,1.25,0.8125,3.25,0.810546875,0.49755859375,-0.2568359375
1969/12/31/18:00:13.276000,201,1730346243,683811391,RU_myo,0.4079331364007459,0.7633715103737436,-0.1281848849979898,0.4841726227638361,-0.25,-0.4375,2.1875,0.8046875,0.4951171875,-0.2587890625
1969/12/31/18:00:13.290000,202,1730346243,698137064,RU_myo,0.4077964108707054,0.7635882502608179,-0.1285465111949866,0.4838500447496006,-1.625,-0.25,1.0625,0.83154296875,0.4931640625,-0.2421875
1969/12/31/18:00:13.313000,203,1730346243,720995120,RU_myo,0.4078470771129785,0.7635077952119498,-0.1289094622661794,0.4838377402386382,-2.1875,0.375,0.4375,0.837890625,0.47998046875,-0.21728515625
1969/12/31/18:00:13.336000,204,1730346243,743737753,RU_myo,0.4077334684808178,0.7632184565694828,-0.1293394041483312,0.4842750507375462,-2.0,2.3125,1.8125,0.84326171875,0.4697265625,-0.20703125
1969/12/31/18:00:13.350000,205,1730346243,758229759,RU_myo,0.4075409523919247,0.7629567028454485,-0.1297026394837262,0.4847521707198841,-1.375,2.75,1.75,0.853515625,0.4755859375,-0.21728515625
1969/12/31/18:00:13.373000,206,1730346243,781330733,RU_myo,0.4073644065395713,0.762724846286857,-0.1297657669018772,0.4852482816885814,0.0,2.75,0.625,0.85400390625,0.474609375,-0.20654296875
1969/12/31/18:00:13.396000,207,1730346243,803798151,RU_myo,0.4070724930296338,0.7626886790231331,-0.129464800977036,0.4856303425616684,1.5625,2.9375,-0.4375,0.8359375,0.47509765625,-0.2060546875
1969/12/31/18:00:13.410000,208,1730346243,818129555,RU_myo,0.406519512213468,0.7626208386779384,-0.1290974126623851,0.4862974405112161,3.1875,3.5625,0.0,0.85693359375,0.47314453125,-0.203125
1969/12/31/18:00:13.433000,209,1730346243,841131928,RU_myo,0.4059067678967233,0.7624943375287019,-0.1287914707161032,0.4870881214760679,3.3125,5.0,1.25,0.86767578125,0.4892578125,-0.2119140625
1969/12/31/18:00:13.456000,210,1730346243,863778926,RU_myo,0.4054281883063859,0.7624515959251831,-0.1284283210172592,0.4876491713911046,1.875,5.25,1.375,0.85693359375,0.5009765625,-0.236328125
1969/12/31/18:00:13.471000,211,1730346243,878723324,RU_myo,0.4053400854003757,0.7623396576796706,-0.1278704229654851,0.4880438673183864,0.875,5.5,0.0,0.83447265625,0.50634765625,-0.2333984375
1969/12/31/18:00:13.501000,212,1730346243,908743459,RU_myo,0.4055406435023208,0.7620062302051434,-0.1275096935996911,0.4884921387641591,-1.25,5.875,-0.25,0.81689453125,0.48876953125,-0.21826171875
1969/12/31/18:00:13.516000,213,1730346243,923763069,RU_myo,0.4059101486672002,0.7615240623717278,-0.1273276045292901,0.4889843911237505,-2.6875,5.875,0.6875,0.80859375,0.48779296875,-0.21240234375
1969/12/31/18:00:13.530000,214,1730346243,938223352,RU_myo,0.4064041905314878,0.7608633576111438,-0.12732939943657,0.4896016840271949,-3.875,5.875,1.0,0.81787109375,0.4814453125,-0.20166015625
1969/12/31/18:00:13.553000,215,1730346243,961130195,RU_myo,0.4068734620090945,0.7601563300121906,-0.1273234386065063,0.4903112091687753,-3.6875,6.3125,0.5625,0.81201171875,0.47265625,-0.19580078125
1969/12/31/18:00:13.577000,216,1730346243,984398157,RU_myo,0.407378355385596,0.7592717055201422,-0.1271455070824388,0.4913078187741478,-3.25,7.625,0.875,0.81005859375,0.4716796875,-0.18115234375
1969/12/31/18:00:13.597000,217,1730346244,4889232,RU_myo,0.4077966471240822,0.7585225166608246,-0.1267764759881333,0.4922125673415056,-1.75,7.625,-0.125,0.83349609375,0.484375,-0.1806640625
1969/12/31/18:00:13.613000,218,1730346244,21294173,RU_myo,0.4079221089845162,0.7579184239504321,-0.1264112954821088,0.4931322338000757,-1.0,7.625,0.625,0.8251953125,0.48046875,-0.19140625
1969/12/31/18:00:13.636000,219,1730346244,43756967,RU_myo,0.4077294718813833,0.7575345023233307,-0.1260421196759067,0.4939752419065921,0.6875,6.625,1.1875,0.81689453125,0.4716796875,-0.1953125
1969/12/31/18:00:13.664000,220,1730346244,72354294,RU_myo,0.4071896262818109,0.7574300813267862,-0.1254957085347628,0.4947192206586834,3.5,5.625,1.0,0.8193359375,0.47705078125,-0.197265625
1969/12/31/18:00:13.673000,221,1730346244,81059466,RU_myo,0.406268082543981,0.7576020794074358,-0.1248224502407513,0.4953833770923903,5.6875,5.5625,1.625,0.82763671875,0.48583984375,-0.20849609375
1969/12/31/18:00:13.673000,1,1730346250,521685863,RU_myo,0.544889886070775,0.6166100178208771,-0.0385152367100547,0.5669247520808064,-173.25,215.625,-29.125,0.8740234375,0.59716796875,0.4619140625
1969/12/31/18:00:13.691000,2,1730346250,539702883,RU_myo,0.5686391377856322,0.5701040733059044,-0.0327779322660889,0.5920781061099863,-203.0625,262.625,-11.375,0.90625,0.5498046875,0.513671875
1969/12/31/18:00:13.713000,3,1730346250,562204599,RU_myo,0.5900643440969285,0.515962956517155,-0.0280169167208534,0.6203397050850403,-223.6875,296.0625,10.5625,0.90380859375,0.50537109375,0.62353515625
1969/12/31/18:00:13.734000,4,1730346250,582385038,RU_myo,0.6069802990441859,0.458714495908795,-0.0232561840241185,0.6485484389928072,-221.0625,307.3125,27.3125,0.8798828125,0.45361328125,0.705078125
1969/12/31/18:00:13.749000,5,1730346250,598080222,RU_myo,0.6174767300609539,0.4032276867124023,-0.0170300521636028,0.6751591648086409,-192.8125,302.75,41.0,0.87841796875,0.39208984375,0.72900390625
1969/12/31/18:00:13.773000,6,1730346250,621428720,RU_myo,0.6209914639726238,0.3524282202651789,-0.0054933390758341,0.7000955466646349,-139.6875,301.4375,48.1875,0.9384765625,0.28369140625,0.73193359375
1969/12/31/18:00:13.794000,7,1730346250,642344756,RU_myo,0.6179121481238017,0.3095969984474881,0.01373409397687,0.7225964644363889,-66.5,293.9375,49.5,0.958984375,0.19091796875,0.7138671875
1969/12/31/18:00:13.809000,8,1730346250,658190449,RU_myo,0.6078119099823597,0.2769883960132505,0.0410782702769761,0.7430711179077372,15.875,278.0,58.125,0.88623046875,0.17236328125,0.67431640625
1969/12/31/18:00:13.832000,9,1730346250,681170539,RU_myo,0.5901203185652559,0.254469549865386,0.0767254075751475,0.7623099564089244,98.0,264.0,76.125,0.80224609375,0.20947265625,0.61181640625
1969/12/31/18:00:13.854000,10,1730346250,702488000,RU_myo,0.568814521581228,0.2431759903401237,0.1184750495105873,0.7767104611139743,170.375,227.125,72.3125,0.5927734375,0.2197265625,0.60791015625
1969/12/31/18:00:13.870000,11,1730346250,718791010,RU_myo,0.5444021426507534,0.239453930442752,0.163338954337192,0.787152150647395,213.5625,200.25,74.625,0.51806640625,0.38671875,0.521484375
1969/12/31/18:00:13.892000,12,1730346250,741066200,RU_myo,0.5199774496707456,0.236519851798819,0.2075881331529763,0.7940963282329381,213.3125,189.6875,65.0,0.51123046875,0.58642578125,0.40234375
1969/12/31/18:00:13.914000,13,1730346250,762377154,RU_myo,0.5009932824343991,0.227973916897232,0.2448201822422483,0.7981833765100679,160.0625,182.375,35.5625,0.39892578125,0.76611328125,0.51708984375
1969/12/31/18:00:13.929000,14,1730346250,778280308,RU_myo,0.4878181566827316,0.2155873034789049,0.2721087765880402,0.8009446761750255,95.4375,158.8125,14.625,0.16943359375,0.8974609375,0.39794921875
1969/12/31/18:00:13.953000,15,1730346250,801395390,RU_myo,0.4810325297412097,0.1962949645537026,0.2846765281960414,0.8056272503558213,-1.9375,140.875,-1.3125,0.0712890625,0.7041015625,0.24755859375
1969/12/31/18:00:13.974000,16,1730346250,822485163,RU_myo,0.47644653805074,0.1741965692540112,0.2875403075527845,0.8123883450493657,-56.25,126.0625,-0.375,0.09326171875,0.4765625,0.33203125
1969/12/31/18:00:13.989000,17,1730346250,838180792,RU_myo,0.4685899732496634,0.1559525051000247,0.2926169508608683,0.8188269494782121,-28.625,119.6875,17.5625,0.119140625,0.283203125,0.3837890625
1969/12/31/18:00:14.013000,18,1730346250,861362458,RU_myo,0.4563291249404714,0.1468603363572464,0.3052570831764711,0.8228085345368586,41.4375,102.3125,40.875,0.0751953125,0.17041015625,0.4052734375
1969/12/31/18:00:14.033000,19,1730346250,882261134,RU_myo,0.4404411943794995,0.1470985696306255,0.3269738744860004,0.8230805856717781,114.0625,83.3125,57.75,-0.0322265625,0.37451171875,0.26416015625
1969/12/31/18:00:14.049000,20,1730346250,898241069,RU_myo,0.4253753440855574,0.1542435779170904,0.3535333610193067,0.8187056235068993,160.5,57.1875,51.375,-0.072265625,0.525390625,0.2333984375
1969/12/31/18:00:14.073000,21,1730346250,921442966,RU_myo,0.4115189893080784,0.1666340612297618,0.383563531416785,0.8097927070825092,196.375,35.125,41.6875,-0.029296875,0.7314453125,0.23681640625
1969/12/31/18:00:14.093000,22,1730346250,942334593,RU_myo,0.3990804047189648,0.1792138372980851,0.4093351474526427,0.8006634549860296,175.0,21.125,38.5625,0.0029296875,1.021484375,0.296875
1969/12/31/18:00:14.116000,23,1730346250,964852444,RU_myo,0.3897971824908522,0.1887946579148459,0.4255662318080522,0.794549001641626,98.0625,9.25,32.0,-0.00439453125,1.20556640625,0.45361328125
1969/12/31/18:00:14.133000,24,1730346250,981328952,RU_myo,0.3861982705479,0.1936179728430439,0.4290481497836556,0.7932721232875785,17.125,-6.25,19.875,-0.01025390625,1.1806640625,0.513671875
1969/12/31/18:00:14.153000,25,1730346251,2390533,RU_myo,0.3878308029053365,0.1941595505259483,0.4210961141397413,0.7965973888444361,-51.375,-19.5625,8.5625,0.00634765625,0.95556640625,0.544921875
1969/12/31/18:00:14.169000,26,1730346251,18071184,RU_myo,0.3916739795255291,0.1932429202396486,0.4082760244734711,0.8015980011078033,-79.5625,-26.5,3.6875,0.0234375,0.8251953125,0.564453125
1969/12/31/18:00:14.192000,27,1730346251,41169945,RU_myo,0.3955875733959432,0.1924529577098301,0.3962589918973095,0.8058853157763675,-69.1875,-26.4375,1.125,0.03125,0.77197265625,0.63525390625
1969/12/31/18:00:14.214000,28,1730346251,62555926,RU_myo,0.3993158787743922,0.1918449720250557,0.3874743501161481,0.8084590055589764,-46.6875,-21.1875,-5.375,0.0400390625,0.7216796875,0.67529296875
1969/12/31/18:00:14.230000,29,1730346251,78328015,RU_myo,0.4016347736112028,0.1919057337741066,0.3824686157215496,0.8096786127587545,-22.75,-13.125,-4.875,0.05078125,0.67041015625,0.6474609375
1969/12/31/18:00:14.253000,30,1730346251,101416853,RU_myo,0.4020081256490087,0.1934961673712963,0.3825364293110139,0.809082554733922,2.1875,-8.25,-0.375,0.01513671875,0.734375,0.55517578125
1969/12/31/18:00:14.275000,31,1730346251,123844448,RU_myo,0.4017570359093207,0.1958733406613507,0.3850934578474483,0.8074205516573223,19.125,-7.25,0.9375,-0.013671875,0.76513671875,0.57275390625
1969/12/31/18:00:14.296000,32,1730346251,145033830,RU_myo,0.4013258255098492,0.1982519058944472,0.3875312039790164,0.8058866728831239,25.375,-5.8125,0.1875,0.0205078125,0.77294921875,0.70166015625
1969/12/31/18:00:14.313000,33,1730346251,161343769,RU_myo,0.4000974067651152,0.2014220354423921,0.3894769721690618,0.8047725870630121,28.75,-6.6875,5.125,0.06494140625,0.75341796875,0.7431640625
1969/12/31/18:00:14.335000,34,1730346251,183819302,RU_myo,0.3980274499358618,0.203194813807159,0.3902756501901396,0.8049664176896405,16.9375,1.375,9.0625,0.08203125,0.736328125,0.69921875
1969/12/31/18:00:14.356000,35,1730346251,204898754,RU_myo,0.3960672758130221,0.2028860571432401,0.3906960444566427,0.8058067768968281,5.5625,8.125,9.0,0.02880859375,0.77294921875,0.671875
1969/12/31/18:00:14.372000,36,1730346251,221391144,RU_myo,0.3943040064579693,0.2021571005245811,0.3911910800911958,0.8066141556257066,3.125,8.3125,9.125,-0.00390625,0.794921875,0.6513671875
1969/12/31/18:00:14.395000,37,1730346251,243973675,RU_myo,0.3923552868559436,0.2016711057517171,0.3917449021533052,0.8074168846500346,2.1875,8.9375,9.0,0.01953125,0.80615234375,0.6328125
1969/12/31/18:00:14.410000,38,1730346251,258380929,RU_myo,0.3911410745022864,0.2010640916683101,0.392361864372768,0.8078576967911613,2.375,7.75,3.75,0.03173828125,0.81640625,0.640625
1969/12/31/18:00:14.433000,39,1730346251,281385684,RU_myo,0.3901563720116701,0.2003885120954807,0.3928420541719506,0.8082682537826243,0.25,9.375,0.4375,0.06884765625,0.83642578125,0.6328125
1969/12/31/18:00:14.455000,40,1730346251,303864776,RU_myo,0.3887569291087542,0.1992920982163734,0.3937621211619679,0.8087657890863548,2.5,13.5625,0.0625,0.08203125,0.794921875,0.6162109375
1969/12/31/18:00:14.469000,41,1730346251,318063340,RU_myo,0.3873506907939453,0.1986805071752745,0.3957129732772057,0.8086388199871081,9.4375,12.0,0.1875,0.06103515625,0.78125,0.5986328125
1969/12/31/18:00:14.500000,42,1730346251,348813538,RU_myo,0.3858898988400027,0.1989878314170213,0.3991964470758648,0.8075487759653963,21.25,10.125,-1.125,0.0498046875,0.77587890625,0.58984375
1969/12/31/18:00:14.515000,43,1730346251,363802772,RU_myo,0.3845888077247018,0.199527188137129,0.4034489793779208,0.805921380288361,27.625,10.0625,-3.8125,0.05908203125,0.75244140625,0.5859375
1969/12/31/18:00:14.536000,44,1730346251,384904629,RU_myo,0.3830237887098813,0.2002710837859953,0.4076227666939581,0.8043804761145523,26.5,9.1875,-1.5,0.0478515625,0.75244140625,0.5517578125
1969/12/31/18:00:14.553000,45,1730346251,401358721,RU_myo,0.3812487660335271,0.201000990481653,0.4112188499468255,0.8032104566498853,20.6875,6.8125,3.6875,0.00146484375,0.79052734375,0.52490234375
1969/12/31/18:00:14.575000,46,1730346251,423807868,RU_myo,0.3797166566048808,0.2013639688377273,0.4141420213895059,0.8023429434288954,18.8125,6.75,3.25,-0.0087890625,0.81396484375,0.58251953125
1969/12/31/18:00:14.596000,47,1730346251,444831587,RU_myo,0.3790508901728319,0.2012448928985228,0.4171390955621792,0.8011341277807437,17.5625,7.4375,-3.3125,0.01171875,0.8056640625,0.568359375
1969/12/31/18:00:14.612000,48,1730346251,461361733,RU_myo,0.3783679661499247,0.2012998148673095,0.4199951564893743,0.7999500829748205,16.1875,5.9375,-2.4375,-0.0009765625,0.8125,0.546875
1969/12/31/18:00:14.635000,49,1730346251,483800709,RU_myo,0.3777718159365998,0.201734666613421,0.4226966917694222,0.7986983699354353,14.125,3.0,-0.875,-0.017578125,0.84765625,0.52880859375
1969/12/31/18:00:14.656000,50,1730346251,504820393,RU_myo,0.3780078754924046,0.20160826945768,0.4247629267805012,0.7975215406400386,11.6875,3.0,-5.9375,-0.0078125,0.8349609375,0.55810546875
1969/12/31/18:00:14.672000,51,1730346251,521234006,RU_myo,0.378262178263336,0.2020409569229695,0.427032789919364,0.7960779940149151,15.3125,1.75,-7.8125,0.03125,0.814453125,0.55859375
1969/12/31/18:00:14.695000,52,1730346251,543823833,RU_myo,0.3780708065161037,0.2027079671359348,0.4295260357529579,0.794656737170351,16.0,2.5625,-5.625,0.03173828125,0.83642578125,0.5390625
1969/12/31/18:00:14.716000,53,1730346251,564887439,RU_myo,0.378445186268715,0.2024681746537625,0.4313054332539904,0.7935751397870265,10.3125,3.0625,-7.5625,0.01123046875,0.84228515625,0.55908203125
1969/12/31/18:00:14.732000,54,1730346251,581126738,RU_myo,0.3787965625307218,0.2022771202427992,0.4329365159572042,0.7925674129006481,11.75,2.625,-6.375,-0.005859375,0.7734375,0.54541015625
1969/12/31/18:00:14.755000,55,1730346251,603975300,RU_myo,0.378384645085553,0.2030788375866486,0.4350904581658044,0.791378758434295,18.5,0.875,-1.375,0.00048828125,0.7373046875,0.5302734375
1969/12/31/18:00:14.776000,56,1730346251,624942600,RU_myo,0.3771626054004451,0.2042379151432091,0.4377137147316057,0.7902163925415379,21.625,2.625,2.0,0.0048828125,0.77783203125,0.54150390625
1969/12/31/18:00:14.793000,57,1730346251,641360992,RU_myo,0.3760626214221156,0.204359301496712,0.4405810747321588,0.7891150088857507,19.375,6.6875,-0.125,-0.01513671875,0.80517578125,0.5361328125
1969/12/31/18:00:14.815000,58,1730346251,663937679,RU_myo,0.3752773624772596,0.2044248352206152,0.4426051000850048,0.78833883155397,10.5625,4.625,0.5625,-0.02734375,0.8232421875,0.478515625
1969/12/31/18:00:14.836000,59,1730346251,684937123,RU_myo,0.3748944049292243,0.2046598729611997,0.4433178220450922,0.7880595346859679,0.6875,-1.0,4.1875,-0.0654296875,0.86083984375,0.45654296875
1969/12/31/18:00:14.860000,60,1730346251,708762353,RU_myo,0.3751436940509739,0.2050289079591964,0.4435680482701639,0.7877040956276958,-2.875,-4.4375,2.5,-0.0732421875,0.9462890625,0.490234375
1969/12/31/18:00:14.875000,61,1730346251,723822597,RU_myo,0.3766688715251333,0.2041739386244645,0.4433229644931199,0.7873362135476737,-5.1875,-2.1875,-7.8125,-0.03955078125,0.90087890625,0.53076171875
1969/12/31/18:00:14.896000,62,1730346251,744921308,RU_myo,0.3782431303586719,0.2036177316244198,0.4433690655035329,0.7866993234134134,1.625,-2.5625,-9.25,-0.02783203125,0.77783203125,0.52978515625
1969/12/31/18:00:14.912000,63,1730346251,761315887,RU_myo,0.3786915568120981,0.2047888738079608,0.4452860907389194,0.7850952294837534,14.8125,-5.3125,-2.875,-0.04736328125,0.83349609375,0.50537109375
1969/12/31/18:00:14.935000,64,1730346251,783752240,RU_myo,0.3788585672327748,0.2056346887396839,0.4481359111685246,0.7831696916648515,19.4375,-1.375,-4.1875,-0.048828125,0.919921875,0.55615234375
1969/12/31/18:00:14.956000,65,1730346251,804904927,RU_myo,0.3796478896780306,0.2048389578391432,0.4496569137070823,0.7821234820473126,10.375,3.5625,-9.5625,-0.02587890625,0.89404296875,0.591796875
1969/12/31/18:00:14.972000,66,1730346251,821249265,RU_myo,0.3804616183079126,0.2036290644433172,0.4507185287318509,0.7814326387899723,3.125,4.75,-9.5,-0.02587890625,0.90576171875,0.5390625
1969/12/31/18:00:14.995000,67,1730346251,843891193,RU_myo,0.3821550730243732,0.2003247004737251,0.4508221321447086,0.7814006140964743,-9.875,9.625,-15.0625,-0.06201171875,1.0048828125,0.5810546875
1969/12/31/18:00:15.016000,68,1730346251,864876038,RU_myo,0.3853952370818653,0.1941625355016492,0.4493632776998245,0.7822046188159809,-25.6875,16.625,-26.625,-0.05712890625,1.00341796875,0.61767578125
1969/12/31/18:00:15.032000,69,1730346251,880667687,RU_myo,0.3884473362794359,0.1860445444657009,0.4460063931794214,0.7845854903419027,-35.875,24.75,-26.1875,-0.0458984375,0.89404296875,0.66943359375
1969/12/31/18:00:15.055000,70,1730346251,903923652,RU_myo,0.3903365571015971,0.1781692588240128,0.4443549860359073,0.7864106648470646,-20.4375,30.625,-24.375,-0.0400390625,0.8056640625,0.71337890625
1969/12/31/18:00:15.076000,71,1730346251,924885445,RU_myo,0.3916222087583648,0.1699308337255747,0.4468619373940132,0.7861742594775154,-5.0,40.0,-30.9375,-0.07373046875,0.90478515625,0.63623046875
1969/12/31/18:00:15.092000,72,1730346251,940728936,RU_myo,0.3936482800172654,0.159253894024662,0.4503546301701634,0.7854043136892779,-8.75,49.375,-40.625,-0.1279296875,0.9072265625,0.58154296875
1969/12/31/18:00:15.115000,73,1730346251,963865141,RU_myo,0.3960173169514919,0.1481402632924277,0.4532713618498427,0.7847100226153484,-9.6875,49.875,-43.3125,-0.1298828125,0.81201171875,0.57763671875
1969/12/31/18:00:15.136000,74,1730346251,984895551,RU_myo,0.3974140419450735,0.1386768089846731,0.4560098767273297,0.7841465515079649,-8.375,48.0625,-39.3125,-0.064453125,0.83203125,0.5625
1969/12/31/18:00:15.152000,75,1730346252,533791,RU_myo,0.3983518236399478,0.1280634578603448,0.4581107012592412,0.784251337745334,-18.125,53.8125,-39.8125,-0.0625,0.8671875,0.537109375
1969/12/31/18:00:15.175000,76,1730346252,23870615,RU_myo,0.3999888860735066,0.115363802026389,0.4592578023526726,0.7847180099742104,-26.0,56.5,-41.625,-0.1513671875,0.75341796875,0.51513671875
1969/12/31/18:00:15.196000,77,1730346252,44651315,RU_myo,0.4005351156325001,0.1048642683109776,0.4615126499995937,0.7845898165711913,-10.0,50.8125,-30.5,-0.17578125,0.5810546875,0.470703125
1969/12/31/18:00:15.220000,78,1730346252,68624439,RU_myo,0.3988268520997408,0.0980281488325962,0.4666408454702355,0.7833096101922213,14.75,47.6875,-17.6875,-0.138671875,0.5927734375,0.45263671875
1969/12/31/18:00:15.235000,79,1730346252,83830723,RU_myo,0.3960278896230438,0.0925977664238837,0.4754410037413515,0.7800919280799169,34.8125,50.5625,-15.6875,-0.17578125,0.7109375,0.41552734375
1969/12/31/18:00:15.258000,80,1730346252,106281786,RU_myo,0.3935029829896311,0.0877706358832153,0.4851189248955464,0.7759583407394416,42.3125,46.5625,-14.875,-0.24560546875,0.72705078125,0.4130859375
1969/12/31/18:00:15.278000,81,1730346252,127303394,RU_myo,0.3910783979742401,0.0849055800814996,0.4935022393665882,0.7722074001517264,41.5,35.375,-8.6875,-0.23486328125,0.69677734375,0.40283203125
1969/12/31/18:00:15.295000,82,1730346252,143876274,RU_myo,0.3877871091605376,0.0826481576898107,0.498635746062086,0.7708130984541586,21.9375,30.4375,1.25,-0.2158203125,0.77001953125,0.42919921875
1969/12/31/18:00:15.317000,83,1730346252,166324782,RU_myo,0.3851596805690249,0.0792293605988263,0.501134861722931,0.7708687172593052,-0.0625,27.625,-0.5,-0.2451171875,0.837890625,0.4111328125
1969/12/31/18:00:15.338000,84,1730346252,187453147,RU_myo,0.3838179776799568,0.0750788983057167,0.5010143067425391,0.7720308176997606,-16.1875,20.0625,-1.75,-0.2939453125,0.8212890625,0.4140625
1969/12/31/18:00:15.355000,85,1730346252,204309636,RU_myo,0.3824077679182053,0.072514034842271,0.499663206413157,0.7738492708167609,-17.6875,11.6875,5.0625,-0.2763671875,0.75146484375,0.41943359375
1969/12/31/18:00:15.378000,86,1730346252,226399882,RU_myo,0.3802761835053972,0.0708058383412938,0.4982045280531385,0.775995364511094,-13.6875,9.8125,13.25,-0.2822265625,0.68994140625,0.44189453125
1969/12/31/18:00:15.399000,87,1730346252,247440296,RU_myo,0.3777610054107698,0.070315184720182,0.4979438167944838,0.7774344685598604,-3.25,8.375,15.9375,-0.2705078125,0.67333984375,0.43994140625
1969/12/31/18:00:15.415000,88,1730346252,263973925,RU_myo,0.3743519353957085,0.0719649326319159,0.5001532298438669,0.7775142594277736,16.5,6.5625,21.125,-0.26025390625,0.724609375,0.45751953125
1969/12/31/18:00:15.438000,89,1730346252,286411287,RU_myo,0.369953862967994,0.0755045254069309,0.5035669641125146,0.7770801236504754,26.3125,4.125,27.0625,-0.2392578125,0.79345703125,0.4619140625
1969/12/31/18:00:15.459000,90,1730346252,307386421,RU_myo,0.3656178017519692,0.0782507548991693,0.5061273476005557,0.7771972403518904,14.4375,4.9375,25.8125,-0.25146484375,0.8779296875,0.4287109375
1969/12/31/18:00:15.481000,91,1730346252,329990461,RU_myo,0.3619483372727284,0.0793478648321327,0.506178340809905,0.7787687749178317,-0.1875,5.5,24.8125,-0.2607421875,0.8076171875,0.4541015625
1969/12/31/18:00:15.498000,92,1730346252,346291684,RU_myo,0.3578075460136568,0.0816084423439541,0.5061920810459324,0.7804379534852637,3.3125,2.625,29.0625,-0.2255859375,0.75927734375,0.4521484375
1969/12/31/18:00:15.519000,93,1730346252,367486870,RU_myo,0.3529329150886852,0.08429615284287,0.5077301950376486,0.781372232108312,9.5625,5.375,30.5,-0.22119140625,0.8623046875,0.4345703125
1969/12/31/18:00:15.535000,94,1730346252,383770576,RU_myo,0.3490809109250067,0.0855153621622546,0.5083311463863361,0.7825784855690701,2.3125,6.0,24.8125,-0.25927734375,0.87109375,0.4560546875
1969/12/31/18:00:15.558000,95,1730346252,406405536,RU_myo,0.3457840451929558,0.0875904862933612,0.5086352071655607,0.7836143993269492,4.8125,-0.0625,25.6875,-0.2373046875,0.75439453125,0.42041015625
1969/12/31/18:00:15.579000,96,1730346252,427647202,RU_myo,0.3415096144891406,0.0915575373965524,0.5085716010587167,0.7850753639963051,6.9375,-4.0,33.25,-0.1728515625,0.77490234375,0.44921875
1969/12/31/18:00:15.595000,97,1730346252,444050519,RU_myo,0.3366780631383159,0.0954612927390003,0.5083741094777072,0.7868232255105203,0.8125,-1.75,32.6875,-0.15380859375,0.9521484375,0.455078125
1969/12/31/18:00:15.617000,98,1730346252,466425066,RU_myo,0.3328997028266408,0.0975993078144112,0.5065520047228259,0.7893397427491968,-12.375,-0.75,27.8125,-0.1748046875,0.93017578125,0.45361328125
1969/12/31/18:00:15.639000,99,1730346252,487450066,RU_myo,0.3299119957785566,0.1000417689326649,0.504298410568443,0.7917277515714445,-10.5,-5.0625,25.6875,-0.154296875,0.8193359375,0.45361328125
1969/12/31/18:00:15.654000,100,1730346252,503199239,RU_myo,0.3263701622032222,0.103459402456417,0.503136197314599,0.7934939421436111,-0.625,-5.1875,28.25,-0.1240234375,0.80322265625,0.4541015625
1969/12/31/18:00:15.677000,101,1730346252,526275900,RU_myo,0.3223360198906987,0.1069977358205633,0.5031884393067451,0.7946397733302418,4.875,-3.0625,29.4375,-0.1279296875,0.84130859375,0.443359375
1969/12/31/18:00:15.698000,102,1730346252,547343260,RU_myo,0.3185634710555856,0.1108471476215641,0.5039394552663182,0.7951573744857471,10.5625,-5.125,28.1875,-0.134765625,0.84326171875,0.43798828125
1969/12/31/18:00:15.715000,103,1730346252,563818987,RU_myo,0.3146514649196099,0.115545145119849,0.5047851823249611,0.7955097075261447,12.875,-7.0625,28.5625,-0.09130859375,0.90478515625,0.46142578125
1969/12/31/18:00:15.737000,104,1730346252,586381984,RU_myo,0.3109833904176549,0.1195103981232126,0.5047147508073774,0.7964104569518274,2.6875,-5.5,26.0,-0.07177734375,0.96142578125,0.443359375
1969/12/31/18:00:15.759000,105,1730346252,607516826,RU_myo,0.3082360708180893,0.1220736914131046,0.502699461239165,0.7983619418417045,-10.125,-4.9375,22.0625,-0.076171875,0.89306640625,0.4453125
1969/12/31/18:00:15.775000,106,1730346252,624043479,RU_myo,0.3061625860110331,0.1247600330555326,0.5003829505818281,0.8001976679833821,-9.25,-8.1875,20.5,-0.0732421875,0.8291015625,0.4501953125
1969/12/31/18:00:15.797000,107,1730346252,646241642,RU_myo,0.3037827226636583,0.1283004386254791,0.4989800598303007,0.8014199615378407,-5.5625,-10.3125,21.875,-0.068359375,0.93359375,0.4404296875
1969/12/31/18:00:15.819000,108,1730346252,667416353,RU_myo,0.3020787157527898,0.131232418441806,0.4974624233956832,0.802532017522263,-10.375,-9.625,17.25,-0.06884765625,0.99609375,0.4306640625
1969/12/31/18:00:15.834000,109,1730346252,683314355,RU_myo,0.3015845500877557,0.1331830577396241,0.494400901783206,0.8042865040490501,-15.6875,-11.25,12.1875,-0.07080078125,0.8662109375,0.4619140625
1969/12/31/18:00:15.858000,110,1730346252,706456644,RU_myo,0.3003694029133678,0.1366036829343867,0.4920906576483583,0.8055832919428224,-3.9375,-13.3125,16.375,-0.015625,0.75830078125,0.474609375
1969/12/31/18:00:15.879000,111,1730346252,727519759,RU_myo,0.2982891991799189,0.1406298986925584,0.492143608141536,0.8056310906436975,8.625,-10.375,16.6875,0.0,0.89013671875,0.48046875
1969/12/31/18:00:15.894000,112,1730346252,743221138,RU_myo,0.2966467212297971,0.1430130180743651,0.4928242031295023,0.8054019519808997,5.375,-5.1875,12.25,-0.0517578125,0.98828125,0.4736328125
1969/12/31/18:00:15.918000,113,1730346252,766468237,RU_myo,0.2961008284217588,0.1445406641316687,0.4917922850121852,0.8059606964504026,-5.6875,-6.875,7.875,-0.05126953125,0.92236328125,0.46044921875
1969/12/31/18:00:15.939000,114,1730346252,787366273,RU_myo,0.2956076842564402,0.1465525603757408,0.4897089512263927,0.8070462112819848,-6.6875,-8.9375,9.1875,-0.01513671875,0.81787109375,0.478515625
1969/12/31/18:00:15.954000,115,1730346252,803067427,RU_myo,0.2946946402375975,0.1486291319342481,0.4886144563177233,0.8076635210488589,-2.625,-6.9375,9.625,-0.00732421875,0.87890625,0.4755859375
1969/12/31/18:00:15.977000,116,1730346252,826254874,RU_myo,0.2938321710580449,0.1499679360801031,0.4883571251839254,0.8078858778820693,2.0625,-4.1875,8.1875,-0.044921875,0.88134765625,0.49658203125
1969/12/31/18:00:15.998000,117,1730346252,847240367,RU_myo,0.2931040533192806,0.1514350596178957,0.4881201820896057,0.8080198787673128,3.375,-4.875,7.6875,-0.03564453125,0.85693359375,0.49658203125
1969/12/31/18:00:16.015000,118,1730346252,863731979,RU_myo,0.2918293917722159,0.1529647470782625,0.488071076471583,0.8082227518209394,5.9375,-2.9375,9.875,-0.0224609375,0.8251953125,0.49755859375
1969/12/31/18:00:16.037000,119,1730346252,886255825,RU_myo,0.2902447122788302,0.1545530202923234,0.4888074986180594,0.8080461621760576,7.6875,-0.875,9.4375,-0.01171875,0.87060546875,0.462890625
1969/12/31/18:00:16.058000,120,1730346252,907322635,RU_myo,0.2890279725824585,0.1557149647429465,0.4892416473597476,0.8079964673862732,2.75,-1.75,8.3125,-0.033203125,0.8564453125,0.419921875
1969/12/31/18:00:16.075000,121,1730346252,923826901,RU_myo,0.2879181107817254,0.1575400983522648,0.4891617001918058,0.8080873158022607,1.9375,-5.3125,10.5,-0.02734375,0.8583984375,0.43994140625
1969/12/31/18:00:16.097000,122,1730346252,946240998,RU_myo,0.286456841440236,0.1589460079076016,0.488740662563812,0.8085859319324114,1.875,-2.0,11.0,-0.00732421875,0.8720703125,0.4912109375
1969/12/31/18:00:16.118000,123,1730346252,967392987,RU_myo,0.2857150235026988,0.1596122167185553,0.4876870407576508,0.8093529612573779,-6.8125,-2.4375,7.375,-0.02099609375,0.9404296875,0.47900390625
1969/12/31/18:00:16.134000,124,1730346252,983157160,RU_myo,0.2865122070049685,0.1601636197658792,0.4854959724153215,0.8102789833811157,-17.75,-8.875,3.8125,-0.05859375,0.92236328125,0.41552734375
1969/12/31/18:00:16.157000,125,1730346253,6244669,RU_myo,0.2877952432191127,0.1618733796430725,0.4829344569140233,0.81101493036105,-14.9375,-15.375,2.8125,-0.02392578125,0.841796875,0.41845703125
1969/12/31/18:00:16.180000,126,1730346253,28684453,RU_myo,0.2879757164315387,0.1645575522465935,0.4821365375355498,0.8108854160222534,2.5,-12.8125,4.25,0.0361328125,0.78662109375,0.4599609375
1969/12/31/18:00:16.201000,127,1730346253,49825419,RU_myo,0.2866300413531077,0.1682181418162616,0.4841459727454962,0.8094124741021212,18.75,-10.0,9.1875,0.03857421875,0.77734375,0.388671875
1969/12/31/18:00:16.217000,128,1730346253,66297551,RU_myo,0.2849226314209355,0.1726748338238703,0.4859188236379751,0.8080132379499453,18.375,-10.3125,8.4375,0.1259765625,0.9423828125,0.4541015625
1969/12/31/18:00:16.240000,129,1730346253,88767260,RU_myo,0.2832746825528149,0.1760929668530211,0.4926940826473436,0.803740792901415,61.1875,0.3125,-5.5,0.15087890625,1.13671875,0.748046875
1969/12/31/18:00:16.261000,130,1730346253,110028196,RU_myo,0.2835207414713552,0.1748733959774882,0.4917818329461161,0.804478659330993,1.125,4.9375,-4.5,0.03271484375,0.9111328125,0.62060546875
1969/12/31/18:00:16.278000,131,1730346253,126451859,RU_myo,0.2841382193410349,0.1711543645611733,0.4872772083779766,0.8077948860922138,-40.9375,10.3125,-1.0625,-0.03515625,0.89990234375,0.4072265625
1969/12/31/18:00:16.300000,132,1730346253,149048481,RU_myo,0.2849317156237672,0.167797190713311,0.4854460013615725,0.80932082636151,-13.5,10.25,-5.6875,-0.05712890625,0.8115234375,0.52294921875
1969/12/31/18:00:16.321000,133,1730346253,169954015,RU_myo,0.2837733914885322,0.1650512477059564,0.4847159608110206,0.8107287988278523,-0.5,16.0,1.0,-0.01171875,0.68603515625,0.53564453125
1969/12/31/18:00:16.337000,134,1730346253,186204467,RU_myo,0.2811441796943956,0.1635226351283729,0.4867835069610953,0.8107158043206606,10.5,18.125,5.1875,0.00244140625,0.7919921875,0.4375
1969/12/31/18:00:16.360000,135,1730346253,208796844,RU_myo,0.2784483655102583,0.162112858131356,0.4900617989219343,0.8099539259800806,13.125,18.25,5.125,-0.02099609375,0.8603515625,0.38134765625
1969/12/31/18:00:16.381000,136,1730346253,229800419,RU_myo,0.2761934431289506,0.1619317579273163,0.4934859641320588,0.8086821940365675,12.75,11.375,4.0625,-0.0048828125,0.91064453125,0.33740234375
1969/12/31/18:00:16.397000,137,1730346253,246203225,RU_myo,0.2749219730689541,0.1626092664866105,0.4955187782801443,0.8077358946761701,1.9375,3.3125,2.875,0.015625,0.99072265625,0.31298828125
1969/12/31/18:00:16.420000,138,1730346253,268866698,RU_myo,0.2757740515844084,0.1627909242088573,0.4935000458300004,0.8086442309407355,-29.5,-5.875,0.125,-0.013671875,0.95458984375,0.2216796875
1969/12/31/18:00:16.442000,139,1730346253,291246780,RU_myo,0.2797451442888987,0.1635254727361902,0.4862425964227291,0.8115233893346954,-67.3125,-24.1875,-3.5,-0.03173828125,0.93212890625,0.12744140625
1969/12/31/18:00:16.457000,140,1730346253,306241867,RU_myo,0.2865749692672339,0.1658411483491106,0.4760989904759158,0.8146786187028268,-81.9375,-42.6875,-11.75,0.01123046875,0.99462890625,0.18359375
1969/12/31/18:00:16.480000,141,1730346253,328718685,RU_myo,0.2957271493250414,0.1679144247251164,0.4629091229063188,0.8185751908355277,-92.0625,-50.75,-21.6875,0.05322265625,0.93505859375,0.3203125
1969/12/31/18:00:16.501000,142,1730346253,349799229,RU_myo,0.3095321146954409,0.1691408972236377,0.4417440177580173,0.8248899621364995,-133.0,-72.0625,-30.875,0.0234375,0.9833984375,0.24853515625
1969/12/31/18:00:16.517000,143,1730346253,366254352,RU_myo,0.327650481226904,0.1701121257785733,0.4121266857757183,0.8329817655185469,-184.875,-94.75,-40.4375,0.0244140625,0.98388671875,0.1298828125
1969/12/31/18:00:16.540000,144,1730346253,388770913,RU_myo,0.3495606368748675,0.1712706734888908,0.3751352670216406,0.8412771534915835,-223.0,-117.9375,-51.0625,0.08544921875,0.763671875,0.09375
1969/12/31/18:00:16.561000,145,1730346253,409856477,RU_myo,0.3724058621154726,0.1734760629621657,0.3361480220734155,0.847481230882023,-223.0,-129.4375,-57.3125,0.216796875,0.5068359375,0.23095703125
1969/12/31/18:00:16.578000,146,1730346253,426344331,RU_myo,0.3952801962548434,0.1795729365938464,0.3007327867429916,0.8491565920780391,-186.3125,-144.4375,-63.3125,0.28076171875,0.396484375,0.31298828125
1969/12/31/18:00:16.600000,147,1730346253,448652589,RU_myo,0.4162831736910691,0.1905624733524219,0.2710113330188192,0.8467272999182567,-136.875,-156.3125,-61.125,0.30029296875,0.2880859375,0.40380859375
1969/12/31/18:00:16.621000,148,1730346253,470034640,RU_myo,0.434903878977241,0.2074110008090758,0.2477578729499819,0.8405089703181206,-81.4375,-169.4375,-56.5625,0.349609375,0.2421875,0.48876953125
1969/12/31/18:00:16.638000,149,1730346253,486357473,RU_myo,0.4507741790556903,0.2299345067708578,0.2308500941352228,0.8310481310552773,-28.9375,-179.8125,-51.8125,0.45361328125,0.236328125,0.49169921875
1969/12/31/18:00:16.660000,150,1730346253,508891695,RU_myo,0.4632877932457093,0.2569141398908025,0.2178490295248928,0.8196958860996879,8.125,-188.625,-40.6875,0.53173828125,0.26611328125,0.513671875
1969/12/31/18:00:16.681000,151,1730346253,529982098,RU_myo,0.472450067354254,0.2881090850015606,0.2064374842108639,0.8069495982458964,32.875,-202.625,-25.125,0.54052734375,0.3369140625,0.52294921875
1969/12/31/18:00:16.697000,152,1730346253,546317008,RU_myo,0.4784911087981889,0.3227785410543211,0.1920922974088404,0.7937007128081197,32.375,-224.5625,-2.0625,0.54296875,0.53466796875,0.54150390625
1969/12/31/18:00:16.720000,153,1730346253,568801396,RU_myo,0.4849589946800893,0.356959119054646,0.1707275403549666,0.7799019603558844,-2.625,-243.375,8.0,0.5888671875,0.63916015625,0.4892578125
1969/12/31/18:00:16.741000,154,1730346253,589848586,RU_myo,0.4934803917235543,0.3899624270527877,0.1409943976353012,0.7645436470908153,-45.9375,-265.375,9.625,0.67041015625,0.55419921875,0.37841796875
1969/12/31/18:00:16.748000,155,1730346253,596625096,RU_myo,0.5008926881975185,0.4273397160700495,0.1027910415457739,0.7456012900722262,-64.5,-314.4375,24.875,0.87255859375,0.48095703125,0.33447265625
1969/12/31/18:00:16.766000,156,1730346253,614540491,RU_myo,0.5079551805037583,0.4665716654374824,0.0636012134204417,0.721281707283455,-58.4375,-339.6875,14.9375,1.02294921875,0.55517578125,0.4658203125
1969/12/31/18:00:16.785000,157,1730346253,634110816,RU_myo,0.5139460421884778,0.504973350003002,0.0286271607822323,0.6928505373968422,-37.0625,-336.5,-4.75,1.07958984375,0.4970703125,0.5478515625
1969/12/31/18:00:16.808000,158,1730346253,656756913,RU_myo,0.5168085927912319,0.5437263428114202,-0.0072635198467174,0.6612244579789083,-28.3125,-352.25,1.1875,1.0048828125,0.3837890625,0.58056640625
1969/12/31/18:00:16.823000,159,1730346253,671586388,RU_myo,0.5147311085207713,0.5828492061265084,-0.0402848964335004,0.6274677808127036,-1.25,-352.3125,3.25,1.1611328125,0.38525390625,0.501953125
1969/12/31/18:00:16.853000,160,1730346253,701738151,RU_myo,0.5087003927097273,0.6197306320112624,-0.0670820412272606,0.5938500264786342,27.75,-327.125,-2.8125,1.26416015625,0.38671875,0.451171875
1969/12/31/18:00:16.868000,161,1730346253,716708569,RU_myo,0.5015391081366336,0.6507129648101072,-0.0924096640767753,0.5625758743696425,21.9375,-298.375,6.0625,1.2529296875,0.46044921875,0.5439453125
1969/12/31/18:00:16.883000,162,1730346253,731761712,RU_myo,0.4952099210366336,0.6773504861017532,-0.1139599312924189,0.5319554371791276,17.1875,-269.6875,-2.8125,1.09228515625,0.6162109375,0.34521484375
1969/12/31/18:00:16.916000,163,1730346253,764533032,RU_myo,0.4906198374932208,0.6982695870766915,-0.1321462986032375,0.5042312114371109,7.6875,-231.6875,-9.1875,1.201171875,0.69287109375,0.3896484375
1969/12/31/18:00:16.931000,164,1730346253,779800188,RU_myo,0.4906850202506994,0.7106051754893199,-0.1488718453030794,0.4817734624752793,-25.8125,-180.625,-8.375,1.3515625,0.71630859375,0.46142578125
1969/12/31/18:00:16.944000,165,1730346253,793266004,RU_myo,0.4976452704856731,0.7145143549988089,-0.1682825966796272,0.4620599408287189,-81.9375,-149.125,-1.125,1.2060546875,0.62109375,0.53564453125
1969/12/31/18:00:16.965000,166,1730346253,814305964,RU_myo,0.5076591861843458,0.7150688188228461,-0.1868395778418038,0.4427750074042617,-103.5625,-129.1875,-7.25,1.00830078125,0.59375,0.26318359375
1969/12/31/18:00:16.988000,167,1730346253,836683411,RU_myo,0.5144978232132124,0.7162317543698936,-0.1993534097300215,0.4272730765799604,-69.3125,-101.3125,-15.5625,0.970703125,0.4501953125,0.26953125
1969/12/31/18:00:17.003000,168,1730346253,851686128,RU_myo,0.5159618540494908,0.7162304975058235,-0.2062504560313769,0.4222060977712443,-13.875,-64.6875,-9.75,1.02294921875,0.369140625,0.29638671875
1969/12/31/18:00:17.025000,169,1730346253,874264261,RU_myo,0.515536985560422,0.715379288511502,-0.2093644163476495,0.42263534075543,9.8125,-35.25,-3.0,0.990234375,0.3427734375,0.3759765625
1969/12/31/18:00:17.048000,170,1730346253,896705871,RU_myo,0.5137472528057366,0.7171220711909944,-0.2079525829047338,0.4225581835777728,24.25,-14.8125,-1.1875,0.7578125,0.560546875,0.10107421875
1969/12/31/18:00:17.063000,171,1730346253,911686150,RU_myo,0.508191235291008,0.7226740602745056,-0.2029468961497239,0.422251617312418,51.6875,-5.5625,-6.4375,0.74560546875,0.65869140625,-0.13232421875
1969/12/31/18:00:17.085000,172,1730346253,934190528,RU_myo,0.503005387550397,0.7265226462822928,-0.1973324132933422,0.4245118881704903,52.5,4.125,-11.0,0.92529296875,0.5986328125,-0.044921875
1969/12/31/18:00:17.108000,173,1730346253,956613802,RU_myo,0.4944710614341107,0.730567107061458,-0.1923926411110131,0.4298315287765717,69.3125,7.375,-3.625,1.02197265625,0.44677734375,-0.01123046875
1969/12/31/18:00:17.123000,174,1730346253,971687759,RU_myo,0.4850679864985368,0.7358726117058463,-0.1854330619079596,0.4345286266368546,77.875,13.125,-3.5625,0.93408203125,0.54638671875,-0.12353515625
1969/12/31/18:00:17.162000,175,1730346254,10593645,RU_myo,0.4815325950689222,0.7380773405467623,-0.1787206792193946,0.4375238485808131,43.6875,18.5,-8.75,0.8134765625,0.6318359375,-0.09423828125
1969/12/31/18:00:17.168000,176,1730346254,16617157,RU_myo,0.4771286197559293,0.7397721467880086,-0.172003127858796,0.4421542435092685,46.75,26.3125,-8.5625,0.7724609375,0.4873046875,-0.09130859375
1969/12/31/18:00:17.184000,177,1730346254,33036529,RU_myo,0.4690849939422807,0.7429061107705268,-0.1652937102922181,0.4480265264198231,61.0,31.375,-5.25,0.74609375,0.32080078125,-0.21142578125
1969/12/31/18:00:17.205000,178,1730346254,54152039,RU_myo,0.4579630797509058,0.7486838779454366,-0.1583308315172397,0.452408682808705,74.5625,26.25,2.0625,0.73046875,0.42431640625,-0.40185546875
1969/12/31/18:00:17.228000,179,1730346254,76722543,RU_myo,0.4508166744940378,0.7539246633293197,-0.1488073453041516,0.454112653430225,63.4375,26.875,-9.9375,0.8330078125,0.77099609375,-0.43798828125
1969/12/31/18:00:17.244000,180,1730346254,93150289,RU_myo,0.4479483934895432,0.7566720580583005,-0.1391026555065634,0.4554559084642283,43.875,28.1875,-22.75,0.8115234375,0.73095703125,-0.30322265625
1969/12/31/18:00:17.265000,181,1730346254,114231029,RU_myo,0.4454585535091257,0.7573649947850414,-0.1356274192788815,0.4577883188981149,19.5,20.25,-5.25,0.7841796875,0.4912109375,-0.26708984375
1969/12/31/18:00:17.288000,182,1730346254,136722517,RU_myo,0.4440611001652249,0.7571928450240021,-0.1366060126693846,0.4591378138065734,-1.8125,8.9375,3.75,0.7685546875,0.38330078125,-0.28369140625
1969/12/31/18:00:17.303000,183,1730346254,151716566,RU_myo,0.4409977959870111,0.7585162090976592,-0.1369687272242011,0.4597974252138622,8.25,4.5,0.5625,0.77880859375,0.34814453125,-0.330078125
1969/12/31/18:00:17.325000,184,1730346254,174206473,RU_myo,0.4363548565489524,0.7610726963643709,-0.1362350034714312,0.460220397031627,21.3125,2.4375,1.75,0.76318359375,0.390625,-0.33740234375
1969/12/31/18:00:17.348000,185,1730346254,196735009,RU_myo,0.4331121340393759,0.7631343026908562,-0.1350728794573194,0.460212160464613,19.6875,-0.0625,4.9375,0.75,0.541015625,-0.2734375
1969/12/31/18:00:17.363000,186,1730346254,211708781,RU_myo,0.4319638385763821,0.7640699917054051,-0.1340388002704161,0.4600411828953218,10.5,0.625,5.5625,0.7578125,0.64501953125,-0.2255859375
1969/12/31/18:00:17.385000,187,1730346254,234157105,RU_myo,0.4317266185854571,0.7643874515121842,-0.1342240681845638,0.4596823362882903,0.5625,-0.1875,5.5625,0.794921875,0.611328125,-0.25
1969/12/31/18:00:17.409000,188,1730346254,258088235,RU_myo,0.4320987968262684,0.7643369309024626,-0.1359960614958223,0.4588951482610376,-9.5,-4.0,4.5625,0.82177734375,0.53076171875,-0.265625
1969/12/31/18:00:17.423000,189,1730346254,271682110,RU_myo,0.4328104589208664,0.7640560322622204,-0.1382478761043241,0.4580185705460698,-12.8125,-5.3125,2.9375,0.81103515625,0.47607421875,-0.25341796875
1969/12/31/18:00:17.445000,190,1730346254,294161057,RU_myo,0.4328287642779129,0.7641493865456483,-0.1400238591529449,0.4573054720025559,-7.0,-6.0,2.5625,0.80419921875,0.4677734375,-0.23193359375
1969/12/31/18:00:17.471000,191,1730346254,319586639,RU_myo,0.432132124287385,0.7647151674006565,-0.1413584745550259,0.4566074042081819,-0.875,-7.8125,3.375,0.81201171875,0.48779296875,-0.2216796875
1969/12/31/18:00:17.483000,192,1730346254,331656196,RU_myo,0.4314908283448346,0.7651347479562176,-0.1427112118645103,0.45608989523166,0.5,-8.0,4.9375,0.814453125,0.509765625,-0.19384765625
1969/12/31/18:00:17.505000,193,1730346254,354163945,RU_myo,0.4312829221831337,0.7652738859796393,-0.1442289194903403,0.4555753935996193,-2.6875,-8.0625,5.25,0.81884765625,0.5205078125,-0.18798828125
1969/12/31/18:00:17.523000,194,1730346254,372160133,RU_myo,0.4316594758581286,0.7651090964199155,-0.1464297345282311,0.454792810325073,-7.9375,-8.75,6.9375,0.826171875,0.52734375,-0.20263671875
1969/12/31/18:00:17.543000,195,1730346254,391735887,RU_myo,0.4324582328876922,0.7645080263822648,-0.1485068285978483,0.4543710777157348,-9.5625,-6.4375,7.375,0.818359375,0.5390625,-0.18896484375
1969/12/31/18:00:17.565000,196,1730346254,414200304,RU_myo,0.4329412193075576,0.7641934394093644,-0.1496647215201087,0.454060303176219,-4.875,-4.375,4.5,0.81201171875,0.54052734375,-0.1826171875
1969/12/31/18:00:17.583000,197,1730346254,432138644,RU_myo,0.4329948430471558,0.7642413912874878,-0.1500283795052028,0.45380838145695,-0.6875,-3.125,1.375,0.82470703125,0.53271484375,-0.1982421875
1969/12/31/18:00:17.603000,198,1730346254,451673303,RU_myo,0.4325250316593924,0.7645182079500268,-0.1497295939402328,0.453888813917477,3.875,-0.25,0.0,0.81201171875,0.52490234375,-0.20458984375
1969/12/31/18:00:17.625000,199,1730346254,474194440,RU_myo,0.4313588757829816,0.7652393131019161,-0.1488728311921172,0.4540651870595161,8.9375,0.0625,-1.0625,0.79150390625,0.50341796875,-0.21533203125
1969/12/31/18:00:17.643000,200,1730346254,492188898,RU_myo,0.4298941422709112,0.7662773054194263,-0.1481404349412894,0.4539433105308486,9.4375,-0.5625,-1.3125,0.791015625,0.4892578125,-0.2431640625
1969/12/31/18:00:17.663000,201,1730346254,511648731,RU_myo,0.4281265915039602,0.7674416360107345,-0.1474088563561539,0.4538849920763399,10.1875,-0.3125,-1.625,0.806640625,0.48486328125,-0.26318359375
