time,.header.seq,.header.stamp.secs,.header.stamp.nsecs,.header.frame_id,.orientation.x,.orientation.y,.orientation.z,.orientation.w,.angular_velocity.x,.angular_velocity.y,.angular_velocity.z,.linear_acceleration.x,.linear_acceleration.y,.linear_acceleration.z
1969/12/31/18:00:26.227,1,1730345074,895460498,RU_myo,-0.732462644857134,-0.6074050697123737,0.23821362410444077,-0.19445262782391706,-109.5,129.6875,-111.0,0.7919921875,0.75927734375,0.2890625
1969/12/31/18:00:26.248,2,1730345074,916601599,RU_myo,-0.7562032637513326,-0.5882394718349753,0.21264020749876053,-0.19213300034618203,-135.3125,152.125,-101.25,0.658203125,0.75634765625,0.3759765625
1969/12/31/18:00:26.264,3,1730345074,932261029,RU_myo,-0.7821834924556964,-0.5632624416255947,0.18486530888329467,-0.1917008699908975,-163.9375,177.4375,-95.9375,0.619140625,0.7333984375,0.42626953125
1969/12/31/18:00:26.287,4,1730345074,955588754,RU_myo,-0.8097277859115664,-0.5316604163017754,0.15502438955418546,-0.19402461983966757,-193.875,205.3125,-85.375,0.5791015625,0.71630859375,0.4716796875
1969/12/31/18:00:26.311,5,1730345074,979398627,RU_myo,-0.8368235823583293,-0.4941232384780858,0.12554489890679627,-0.1995169054576164,-217.6875,220.625,-64.0625,0.546875,0.64990234375,0.5224609375
1969/12/31/18:00:26.324,6,1730345074,992183380,RU_myo,-0.861603288794902,-0.4528650848521763,0.09716458424321626,-0.20763436909260158,-228.4375,225.75,-43.9375,0.55224609375,0.58740234375,0.61962890625
1969/12/31/18:00:26.347,7,1730345075,15413212,RU_myo,-0.8820296784240459,-0.41141447981293205,0.07049157753804132,-0.21861543787122423,-218.0625,223.5,-20.375,0.5615234375,0.52294921875,0.67529296875
1969/12/31/18:00:26.368,8,1730345075,36539656,RU_myo,-0.897227753742474,-0.3726598642508364,0.044492145600861406,-0.23265303022014222,-191.8125,223.375,2.0,0.5546875,0.44091796875,0.65234375
1969/12/31/18:00:26.384,9,1730345075,52302131,RU_myo,-0.9071341372161669,-0.33879442882910193,0.01782164893138133,-0.2490148206850542,-154.0,224.75,17.9375,0.5244140625,0.36572265625,0.6572265625
1969/12/31/18:00:26.407,10,1730345075,75567557,RU_myo,-0.9110267014901792,-0.3130338280929275,-0.009459981157029394,-0.26823623990415607,-99.0,221.3125,40.1875,0.4755859375,0.353515625,0.6650390625
1969/12/31/18:00:26.428,11,1730345075,96562110,RU_myo,-0.9090285640733806,-0.29704861161173246,-0.03765748784968953,-0.2898466933519863,-36.6875,215.875,60.4375,0.46435546875,0.341796875,0.640625
1969/12/31/18:00:26.458,12,1730345075,126658809,RU_myo,-0.9013780554231788,-0.2925862548377493,-0.06872176114879135,-0.31175022730730567,37.5,213.875,69.0,0.4306640625,0.365234375,0.62353515625
1969/12/31/18:00:26.467,13,1730345075,135484642,RU_myo,-0.8890721183459988,-0.297476316662209,-0.1012542489418557,-0.3328756321451965,96.0,204.3125,75.375,0.333984375,0.40234375,0.58642578125
1969/12/31/18:00:26.490,14,1730345075,157929110,RU_myo,-0.8729450919360495,-0.3087014105441193,-0.1350034638441265,-0.3527667364462257,136.25,197.125,78.3125,0.23974609375,0.52099609375,0.52587890625
1969/12/31/18:00:26.511,15,1730345075,179155000,RU_myo,-0.8533414867502754,-0.32450412566522774,-0.16960635042762234,-0.37113213996055106,168.125,191.5625,80.6875,0.15771484375,0.58349609375,0.5087890625
1969/12/31/18:00:26.527,16,1730345075,195550115,RU_myo,-0.8322925513183024,-0.3404361554046704,-0.2036635802411949,-0.38718662063234655,171.75,185.5,72.5,0.1474609375,0.72509765625,0.521484375
1969/12/31/18:00:26.557,17,1730345075,225486191,RU_myo,-0.8124950706771924,-0.3522663222375689,-0.2359427584494874,-0.4001140001021312,148.625,177.8125,54.3125,0.0615234375,0.88525390625,0.52490234375
1969/12/31/18:00:26.578,18,1730345075,246610280,RU_myo,-0.795308695318737,-0.35911260557558505,-0.264879114241679,-0.41031849885871147,116.0625,163.8125,36.25,-0.037109375,0.96728515625,0.513671875
1969/12/31/18:00:26.587,19,1730345075,255575541,RU_myo,-0.781393264766887,-0.36039422232667867,-0.28990221101638,-0.4189239529297752,76.8125,150.3125,20.625,-0.05712890625,0.87548828125,0.37939453125
1969/12/31/18:00:26.610,20,1730345075,277943537,RU_myo,-0.7708779890960009,-0.355869650417131,-0.3100356412483322,-0.42776374202944106,31.125,136.5,15.0625,-0.10791015625,0.8134765625,0.26123046875
1969/12/31/18:00:26.631,21,1730345075,299029240,RU_myo,-0.7617904763765722,-0.3492200853891,-0.32511279183287933,-0.4382034626168714,6.0625,119.8125,26.1875,-0.15380859375,0.5693359375,0.27880859375
1969/12/31/18:00:26.647,22,1730345075,315484402,RU_myo,-0.7498497265749028,-0.3484976346038332,-0.3386103111702393,-0.4490187561787042,32.8125,103.375,49.9375,-0.17578125,0.4248046875,0.17626953125
1969/12/31/18:00:26.670,23,1730345075,337958587,RU_myo,-0.734344513220522,-0.35722393915223694,-0.3536230144281669,-0.45615782013050044,77.25,80.875,60.5,-0.169921875,0.52294921875,0.03271484375
1969/12/31/18:00:26.691,24,1730345075,359028233,RU_myo,-0.7182750476163404,-0.37088601107693947,-0.36710208270985534,-0.4601745143195859,111.4375,60.125,59.1875,-0.1767578125,0.7822265625,-0.009765625
1969/12/31/18:00:26.707,25,1730345075,375585155,RU_myo,-0.7011688419252833,-0.3874157723510922,-0.3796039861411143,-0.462787303361426,128.0625,49.125,63.3125,-0.12646484375,0.8916015625,0.15966796875
1969/12/31/18:00:26.730,26,1730345075,398006624,RU_myo,-0.6852495510959241,-0.40255664758004234,-0.3902285028239525,-0.46486870597592217,116.875,42.0,57.8125,-0.03759765625,1.01904296875,0.22802734375
1969/12/31/18:00:26.751,27,1730345075,418972880,RU_myo,-0.673295306752051,-0.4112887121285417,-0.397190523598835,-0.4687800263925402,58.25,40.0625,44.75,-0.10107421875,1.181640625,0.2412109375
1969/12/31/18:00:26.767,28,1730345075,435384005,RU_myo,-0.6673107946443283,-0.4119579169424928,-0.399995879650533,-0.4743313971077117,1.125,33.25,34.125,-0.208984375,1.19482421875,0.27294921875
1969/12/31/18:00:26.790,29,1730345075,457990087,RU_myo,-0.6663197271214828,-0.408043020290734,-0.3988275706850055,-0.48005779204410914,-30.8125,20.375,21.875,-0.20849609375,1.01806640625,0.359375
1969/12/31/18:00:26.811,30,1730345075,479135907,RU_myo,-0.6674540966301384,-0.40397573752696475,-0.39451566209008915,-0.4854544517736029,-37.625,5.5625,17.8125,-0.1220703125,0.8857421875,0.4228515625
1969/12/31/18:00:26.827,31,1730345075,495560060,RU_myo,-0.6681070208173129,-0.4001196335505895,-0.3902326017270392,-0.4911779760242746,-40.8125,7.9375,16.8125,-0.05517578125,0.86962890625,0.3564453125
1969/12/31/18:00:26.850,32,1730345075,518016322,RU_myo,-0.6671270797727704,-0.3975542766114561,-0.38913203372346394,-0.4954475924979737,-21.3125,15.5625,14.125,-0.0947265625,0.89111328125,0.3564453125
1969/12/31/18:00:26.871,33,1730345075,538921247,RU_myo,-0.6636505952787102,-0.3993865638682986,-0.39078119933507277,-0.49734124525714635,19.25,13.5625,17.9375,-0.119140625,0.84912109375,0.4072265625
1969/12/31/18:00:26.877,34,1730345075,545794660,RU_myo,-0.6583447657018738,-0.4042103813148707,-0.3929195885407123,-0.49880891536863026,39.875,10.375,26.5,-0.10107421875,0.8251953125,0.42529296875
1969/12/31/18:00:26.892,35,1730345075,560817388,RU_myo,-0.6522363479810156,-0.4094557554603381,-0.3965782529410161,-0.4996593039132193,41.25,15.25,22.1875,-0.08642578125,0.97265625,0.3486328125
1969/12/31/18:00:26.915,36,1730345075,583264396,RU_myo,-0.646639962738591,-0.41300732683832425,-0.4017773359800042,-0.4998566583132667,38.8125,21.5,13.8125,-0.13671875,1.0283203125,0.3369140625
1969/12/31/18:00:26.938,37,1730345075,606031193,RU_myo,-0.6426526592649654,-0.41537454880886554,-0.4047552171173077,-0.5006343555508558,28.125,15.3125,13.6875,-0.123046875,0.951171875,0.3798828125
1969/12/31/18:00:26.953,38,1730345075,620760558,RU_myo,-0.6394334201672164,-0.4166051852688192,-0.40592456595706367,-0.5027825250870982,11.0,14.1875,14.3125,-0.05859375,0.9619140625,0.3388671875
1969/12/31/18:00:26.975,39,1730345075,643244483,RU_myo,-0.6372188126266871,-0.4149459541278465,-0.40695096663104585,-0.5061254298547185,-5.625,22.5,10.0,-0.06787109375,0.98291015625,0.33984375
1969/12/31/18:00:26.997,40,1730345075,665815445,RU_myo,-0.6350367510451551,-0.4128196620922085,-0.4082422708064433,-0.5095551979313792,-1.125,24.9375,10.3125,-0.0830078125,0.88525390625,0.39306640625
1969/12/31/18:00:27.012,41,1730345075,680840060,RU_myo,-0.6310060906275304,-0.4131231480276384,-0.4107429142009169,-0.512299557474368,18.8125,25.3125,14.75,-0.06103515625,0.83740234375,0.39208984375
1969/12/31/18:00:27.035,42,1730345075,703284617,RU_myo,-0.6259476285739243,-0.4148367815344153,-0.41489781386949465,-0.5137701966980591,27.625,25.125,15.75,-0.11181640625,0.9150390625,0.314453125
1969/12/31/18:00:27.058,43,1730345075,725919952,RU_myo,-0.6212439734064045,-0.4170921813792483,-0.4195334584139527,-0.5138888158052781,27.3125,18.9375,14.3125,-0.17919921875,0.96044921875,0.22705078125
1969/12/31/18:00:27.072,44,1730345075,740711038,RU_myo,-0.6170211628663406,-0.42037999701516854,-0.4230043204576268,-0.5134519330558381,32.5,10.5,15.125,-0.15478515625,0.8916015625,0.25927734375
1969/12/31/18:00:27.095,45,1730345075,763371082,RU_myo,-0.6127584769339162,-0.4241704596305495,-0.4260624429756642,-0.5129105816885091,32.75,8.3125,11.9375,-0.0771484375,0.94677734375,0.255859375
1969/12/31/18:00:27.117,46,1730345075,785839294,RU_myo,-0.6094017981177099,-0.4262455841816811,-0.42886994846000476,-0.5128496053663611,20.25,11.4375,8.8125,-0.109375,1.02734375,0.23681640625
1969/12/31/18:00:27.133,47,1730345075,800983734,RU_myo,-0.6073406019390679,-0.4273539237038844,-0.4305276460735791,-0.512983394563146,10.25,6.875,8.0,-0.1279296875,0.9736328125,0.220703125
1969/12/31/18:00:27.155,48,1730345075,823307744,RU_myo,-0.6062469412587375,-0.4287611761142284,-0.43059218469549915,-0.5130486044720576,5.375,-1.875,8.3125,-0.09814453125,0.9052734375,0.21142578125
1969/12/31/18:00:27.178,49,1730345075,845959237,RU_myo,-0.6051256540983279,-0.43069810801532016,-0.43033192002494297,-0.5129683431867318,6.0625,-4.3125,8.5625,-0.080078125,0.962890625,0.2158203125
1969/12/31/18:00:27.193,50,1730345075,860879208,RU_myo,-0.6042423766873579,-0.4331624391262808,-0.429866571617077,-0.512324293930675,7.5625,-8.5625,7.5625,-0.08203125,1.0087890625,0.21728515625
1969/12/31/18:00:27.223,51,1730345075,891595785,RU_myo,-0.6040923449814664,-0.43491231060193264,-0.42899223003381765,-0.5117512944705592,1.4375,-9.3125,4.625,-0.06884765625,0.97998046875,0.20263671875
1969/12/31/18:00:27.232,52,1730345075,899997386,RU_myo,-0.6039645144050358,-0.43686115542757137,-0.42734029202345,-0.5116243456201915,5.6875,-10.9375,6.375,-0.0263671875,0.833984375,0.263671875
1969/12/31/18:00:27.253,53,1730345075,920833591,RU_myo,-0.6023010090736973,-0.4409998066234205,-0.42610858702528676,-0.5110617742408695,20.5,-11.5625,9.9375,0.0244140625,1.0146484375,0.32421875
1969/12/31/18:00:27.275,54,1730345075,943288664,RU_myo,-0.601881787210773,-0.441982143883636,-0.4257480579580564,-0.5110075242664573,9.4375,-2.75,4.0625,-0.0654296875,1.10693359375,0.36962890625
1969/12/31/18:00:27.293,55,1730345075,961204933,RU_myo,-0.6034052659485265,-0.4398444170821311,-0.4254412975550903,-0.5113107432099478,-13.0,1.3125,-5.3125,-0.10986328125,1.08837890625,0.28125
1969/12/31/18:00:27.320,56,1730345075,988340116,RU_myo,-0.6058166300090705,-0.43699849595657314,-0.42454770082038024,-0.5116422334642392,-19.5,-0.5,-8.5,-0.09619140625,0.9501953125,0.25390625
1969/12/31/18:00:27.335,57,1730345076,3438437,RU_myo,-0.607452265118061,-0.43564696758894,-0.42368468044304025,-0.5115708717190383,-8.0,-2.9375,-5.625,-0.0712890625,0.8603515625,0.27783203125
1969/12/31/18:00:27.353,58,1730345076,21213042,RU_myo,-0.6075325579515924,-0.4360880175370834,-0.42375914706227713,-0.5110377845819454,3.6875,-2.875,-0.375,-0.07763671875,0.88427734375,0.25244140625
1969/12/31/18:00:27.373,59,1730345076,40798094,RU_myo,-0.6067032180471866,-0.4375879764005963,-0.4244664401486956,-0.5101531233936659,11.0625,-2.875,3.25,-0.09375,0.90966796875,0.23388671875
1969/12/31/18:00:27.395,60,1730345076,63238850,RU_myo,-0.6054444231377697,-0.4396795992222271,-0.4250317502753456,-0.5093789471278051,13.9375,-3.0,4.9375,-0.06884765625,0.8994140625,0.232421875
1969/12/31/18:00:27.413,61,1730345076,81362324,RU_myo,-0.6040872461635248,-0.4416831077475681,-0.42526570330040825,-0.5090616003485513,11.375,-2.875,7.4375,-0.0693359375,0.94482421875,0.24169921875
1969/12/31/18:00:27.434,62,1730345076,102303955,RU_myo,-0.6036627436915498,-0.4428446939870474,-0.4246573016485496,-0.5090638909241955,1.6875,-5.0625,8.25,-0.099609375,0.96435546875,0.21826171875
1969/12/31/18:00:27.455,63,1730345076,123469474,RU_myo,-0.6041316998406421,-0.44313569780209133,-0.4231179992923701,-0.5095358684684838,-9.0625,-6.75,6.125,-0.08154296875,1.01416015625,0.2177734375
1969/12/31/18:00:27.473,64,1730345076,141272248,RU_myo,-0.6054985958479175,-0.4421769304423105,-0.42118191814801725,-0.5103496883862803,-14.1875,-5.0625,1.125,-0.0576171875,1.005859375,0.26708984375
1969/12/31/18:00:27.493,65,1730345076,160859857,RU_myo,-0.6068325807128209,-0.4410109854400929,-0.41952802572864634,-0.5111357601800135,-13.0625,-3.0625,-1.4375,-0.03662109375,0.955078125,0.27392578125
1969/12/31/18:00:27.515,66,1730345076,183274246,RU_myo,-0.6073778441245866,-0.44088600743127143,-0.4184266980826131,-0.5114985642693087,-5.6875,-3.4375,0.375,-0.02978515625,0.9462890625,0.2568359375
1969/12/31/18:00:27.533,67,1730345076,201284220,RU_myo,-0.6073873947791962,-0.4418084154749399,-0.4182501825182709,-0.5108352586718119,3.6875,-5.1875,0.375,-0.05859375,0.96923828125,0.25537109375
1969/12/31/18:00:27.553,68,1730345076,220969509,RU_myo,-0.6070822600648682,-0.44309009832823393,-0.41867742073439185,-0.5097367081594228,11.125,-3.6875,-1.9375,-0.041015625,0.94677734375,0.28125
1969/12/31/18:00:27.575,69,1730345076,243370903,RU_myo,-0.606227567956213,-0.44443261349613844,-0.4195316925532073,-0.508882055936666,14.375,-1.0,0.1875,-0.04931640625,0.958984375,0.29345703125
1969/12/31/18:00:27.593,70,1730345076,261261326,RU_myo,-0.6055584346234787,-0.4448614624038033,-0.42063180119179755,-0.508395662206569,9.4375,2.75,-1.125,-0.0634765625,0.94677734375,0.2724609375
1969/12/31/18:00:27.613,71,1730345076,280818591,RU_myo,-0.6051999609305156,-0.4448671354601178,-0.42216298202464464,-0.5075476880897708,10.375,4.1875,-5.25,-0.06494140625,0.91552734375,0.27978515625
1969/12/31/18:00:27.643,72,1730345076,310828962,RU_myo,-0.6043267599726858,-0.4448533380570498,-0.42410287366695554,-0.5069826696720967,10.4375,6.625,-1.75,-0.10400390625,0.9482421875,0.2578125
1969/12/31/18:00:27.653,73,1730345076,321252794,RU_myo,-0.6036827343016883,-0.4439579627247478,-0.4257089345621551,-0.5071887091342665,5.5,9.25,0.25,-0.1171875,0.97509765625,0.28759765625
1969/12/31/18:00:27.673,74,1730345076,340732002,RU_myo,-0.6034327063304183,-0.4428550335929519,-0.42692543549926937,-0.5074278871681095,2.5,8.8125,-3.8125,-0.07421875,0.94384765625,0.27685546875
1969/12/31/18:00:27.695,75,1730345076,363435443,RU_myo,-0.6023864209533947,-0.4427875870331184,-0.42826195702431313,-0.5076036335429973,6.375,8.4375,-2.25,-0.0302734375,0.92138671875,0.23681640625
1969/12/31/18:00:27.713,76,1730345076,381323059,RU_myo,-0.6006007025216112,-0.44381346496668594,-0.4300816127090534,-0.5072851376241878,14.75,6.9375,2.0,-0.06640625,0.9755859375,0.244140625
1969/12/31/18:00:27.733,77,1730345076,400926549,RU_myo,-0.5989723973767569,-0.444743413458776,-0.4326589897089698,-0.5062030837418812,17.5625,6.375,0.75,-0.130859375,1.03271484375,0.2451171875
1969/12/31/18:00:27.763,78,1730345076,430716629,RU_myo,-0.5983618054802166,-0.44498734432438386,-0.43510009294863977,-0.5046160146583467,12.5625,4.25,-6.1875,-0.11962890625,0.96337890625,0.21337890625
1969/12/31/18:00:27.773,79,1730345076,441349671,RU_myo,-0.5976342784454027,-0.44596749107440337,-0.43699565294823156,-0.5029722312774269,13.375,1.0625,-4.875,-0.08349609375,0.92822265625,0.18994140625
1969/12/31/18:00:27.792,80,1730345076,460776919,RU_myo,-0.5965899076015608,-0.4471830437848221,-0.43802821144311016,-0.5022341022663165,13.6875,0.5625,1.8125,-0.08154296875,0.90771484375,0.22998046875
1969/12/31/18:00:27.815,81,1730345076,483369699,RU_myo,-0.5958500435639486,-0.4482759981539693,-0.4386940605487721,-0.5015564537548427,7.8125,-1.125,2.75,-0.10498046875,0.9912109375,0.197265625
1969/12/31/18:00:27.833,82,1730345076,501253519,RU_myo,-0.5964473058955756,-0.44802206820622337,-0.43947785222081653,-0.5003859061739306,-1.9375,-2.5625,-4.1875,-0.14697265625,1.080078125,0.1669921875
1969/12/31/18:00:27.853,83,1730345076,520778390,RU_myo,-0.5987920190033786,-0.4462102182176843,-0.43949661898311376,-0.4991866194504774,-9.8125,-4.375,-12.8125,-0.12646484375,1.06494140625,0.22900390625
1969/12/31/18:00:27.875,84,1730345076,543447383,RU_myo,-0.6016420746873595,-0.4441214625177435,-0.4385676555795664,-0.4984389149900249,-11.875,-5.5,-15.6875,-0.0576171875,1.01025390625,0.275390625
1969/12/31/18:00:27.893,85,1730345076,561254991,RU_myo,-0.6049012148653191,-0.4409046893539567,-0.43779199013509573,-0.4980318750177584,-19.25,-2.4375,-18.6875,-0.078125,1.10546875,0.279296875
1969/12/31/18:00:27.913,86,1730345076,580706250,RU_myo,-0.6094668764650035,-0.43583045912643603,-0.43766142310540157,-0.497045688156518,-26.75,-0.125,-28.0,-0.126953125,1.11328125,0.2763671875
1969/12/31/18:00:27.935,87,1730345076,603495496,RU_myo,-0.6146516073185557,-0.4303964983428116,-0.4376592866727597,-0.4953954023041125,-24.1875,-1.0,-34.8125,-0.11083984375,1.02587890625,0.314453125
1969/12/31/18:00:27.953,88,1730345076,621325714,RU_myo,-0.6190595921555542,-0.42540129718270847,-0.43852343188777054,-0.49345329809500693,-16.875,2.1875,-35.625,-0.10400390625,0.9912109375,0.32666015625
1969/12/31/18:00:27.973,89,1730345076,640873154,RU_myo,-0.6229865485754777,-0.4201863623571869,-0.44069218919117603,-0.4910413175782028,-14.0,7.25,-39.3125,-0.1279296875,1.0234375,0.30615234375
1969/12/31/18:00:27.995,90,1730345076,663226605,RU_myo,-0.6269160100528082,-0.4148313980071006,-0.44382138094860024,-0.48776409193361014,-10.75,8.9375,-45.0,-0.14697265625,1.005859375,0.287109375
1969/12/31/18:00:28.014,91,1730345076,681902399,RU_myo,-0.6307567952437931,-0.4095799567374065,-0.44699204338321635,-0.48434309889257304,-7.4375,8.6875,-45.1875,-0.14208984375,0.9228515625,0.3017578125
1969/12/31/18:00:28.033,92,1730345076,700785710,RU_myo,-0.6339413649838058,-0.4048875532206188,-0.45023447092380237,-0.48111675942691257,-4.375,10.3125,-42.3125,-0.1484375,0.927734375,0.302734375
1969/12/31/18:00:28.055,93,1730345076,723431909,RU_myo,-0.6369325852844392,-0.39976125274176666,-0.45395789280813137,-0.4779435679726374,-6.4375,12.8125,-42.125,-0.19189453125,0.95556640625,0.28125
1969/12/31/18:00:28.073,94,1730345076,741258746,RU_myo,-0.6400811518588949,-0.3944970028237888,-0.4577239358258688,-0.47450714680615064,-6.9375,11.6875,-42.375,-0.21826171875,0.88330078125,0.259765625
1969/12/31/18:00:28.094,95,1730345076,762189333,RU_myo,-0.6429092773390536,-0.39023750895252596,-0.4607903022507931,-0.4712267448580627,-3.875,8.5,-38.4375,-0.18896484375,0.83837890625,0.2578125
1969/12/31/18:00:28.117,96,1730345076,784814775,RU_myo,-0.6449918902377874,-0.38645804778441234,-0.4636031792435875,-0.46872991266334285,-4.375,10.0625,-33.1875,-0.1904296875,0.8642578125,0.25341796875
1969/12/31/18:00:28.139,97,1730345076,807317668,RU_myo,-0.6469862107777352,-0.3824182243876322,-0.46639643644594403,-0.46651849780067994,-10.3125,10.25,-31.75,-0.2138671875,0.892578125,0.197265625
1969/12/31/18:00:28.155,98,1730345076,823763693,RU_myo,-0.6494109642356848,-0.37838060128383094,-0.4683375377825998,-0.46449270264052217,-12.625,6.375,-29.375,-0.24267578125,0.8876953125,0.21826171875
1969/12/31/18:00:28.175,99,1730345076,843401114,RU_myo,-0.6511518654988521,-0.37589692938489355,-0.4700084840384909,-0.46237946696216164,-1.25,4.25,-24.3125,-0.2197265625,0.82763671875,0.271484375
1969/12/31/18:00:28.193,100,1730345076,861221598,RU_myo,-0.6518121986323933,-0.3741817031662175,-0.4723807506942625,-0.4604186541650538,5.25,7.8125,-19.0,-0.2392578125,0.82861328125,0.2705078125
1969/12/31/18:00:28.214,101,1730345076,882343378,RU_myo,-0.6519953174463848,-0.37283903344378594,-0.4754933556327609,-0.4580384589942075,9.125,8.8125,-17.0625,-0.29833984375,0.85986328125,0.24853515625
1969/12/31/18:00:28.235,102,1730345076,903264383,RU_myo,-0.6514756658993419,-0.37328322771598044,-0.4788718451045753,-0.45488552913132807,22.1875,6.25,-14.3125,-0.28759765625,0.8193359375,0.26318359375
1969/12/31/18:00:28.252,103,1730345076,920485579,RU_myo,-0.6501235990419106,-0.3750478329057962,-0.4820997285798021,-0.45194942272862826,28.5625,5.4375,-9.1875,-0.2587890625,0.8212890625,0.26611328125
1969/12/31/18:00:28.274,104,1730345076,942319559,RU_myo,-0.6486438192375391,-0.3765039255623239,-0.4849570744882843,-0.44980287427367927,21.625,6.375,-5.875,-0.29541015625,0.91162109375,0.23779296875
1969/12/31/18:00:28.295,105,1730345076,963468972,RU_myo,-0.6479162379126796,-0.37723909820443413,-0.48715781942530223,-0.4478531795217825,14.6875,3.0,-5.6875,-0.3251953125,0.9111328125,0.2265625
1969/12/31/18:00:28.313,106,1730345076,981312753,RU_myo,-0.6479722616805428,-0.37772443510792875,-0.4878864330671809,-0.44656805488523427,8.3125,-1.5625,-2.875,-0.2978515625,0.818359375,0.22900390625
1969/12/31/18:00:28.333,107,1730345077,1543920,RU_myo,-0.6478367528880082,-0.37796071696989497,-0.4880593982897223,-0.4463756957722932,2.0625,-0.6875,1.4375,-0.29296875,0.84033203125,0.21484375
1969/12/31/18:00:28.356,108,1730345077,23905685,RU_myo,-0.6476775307172945,-0.3779746464127596,-0.48807738533228456,-0.44657524427614437,-3.0,-0.4375,3.3125,-0.33642578125,0.94921875,0.2001953125
1969/12/31/18:00:28.372,109,1730345077,40469818,RU_myo,-0.6482260378008001,-0.3779741881273284,-0.4874054361997166,-0.44651367032771433,-3.5625,-5.0625,2.5,-0.33935546875,0.9375,0.2333984375
1969/12/31/18:00:28.395,110,1730345077,62901698,RU_myo,-0.6492300579713444,-0.3779546671382343,-0.486159676800125,-0.44642958018992146,-3.625,-7.875,2.0625,-0.30810546875,0.8515625,0.244140625
1969/12/31/18:00:28.410,111,1730345077,78006744,RU_myo,-0.6497530564843627,-0.37828005298610556,-0.484904004674832,-0.4467586298577433,-3.9375,-6.875,6.5625,-0.32080078125,0.87451171875,0.23095703125
1969/12/31/18:00:28.432,112,1730345077,100451960,RU_myo,-0.64973147681196,-0.3792439786689385,-0.4839114108249136,-0.447048944922751,1.1875,-5.9375,8.75,-0.33203125,0.921875,0.2587890625
1969/12/31/18:00:28.455,113,1730345077,123063233,RU_myo,-0.6498131632282238,-0.38029358693294474,-0.4831333709133671,-0.44688005834104017,4.3125,-6.0625,5.3125,-0.30517578125,0.90234375,0.26953125
1969/12/31/18:00:28.469,114,1730345077,137823526,RU_myo,-0.649554328414077,-0.3816886939680201,-0.4823900603011242,-0.4468699419945384,6.875,-4.9375,7.125,-0.28466796875,0.86181640625,0.275390625
1969/12/31/18:00:28.492,115,1730345077,160509988,RU_myo,-0.648410748686979,-0.3835901313533192,-0.48173061364705627,-0.4476133688695693,7.0,-1.875,10.5,-0.2529296875,0.9208984375,0.2529296875
1969/12/31/18:00:28.514,116,1730345077,182899591,RU_myo,-0.647239375258417,-0.3846817333572657,-0.4814777398787036,-0.44864277675856895,5.125,2.8125,8.5625,-0.24951171875,0.943359375,0.2763671875
1969/12/31/18:00:28.529,117,1730345077,197427759,RU_myo,-0.645900778829267,-0.38584378000176,-0.4816028579553762,-0.44943903763571036,7.25,3.5625,8.6875,-0.25537109375,0.8779296875,0.25390625
1969/12/31/18:00:28.552,118,1730345077,220541046,RU_myo,-0.6443785056667204,-0.38755479361466894,-0.4812392988427818,-0.450540076608423,6.5625,1.0,14.5,-0.263671875,0.84716796875,0.22802734375
1969/12/31/18:00:28.575,119,1730345077,243126719,RU_myo,-0.6423005524616255,-0.389628157251522,-0.4806268387148709,-0.4523690321974124,5.4375,2.5,18.25,-0.24755859375,0.93115234375,0.22900390625
1969/12/31/18:00:28.589,120,1730345077,257392676,RU_myo,-0.6405126419850667,-0.3911429749864024,-0.4801251028581725,-0.4541262095293837,2.6875,3.3125,14.75,-0.251953125,0.99658203125,0.23828125
1969/12/31/18:00:28.612,121,1730345077,280462818,RU_myo,-0.6395410565243467,-0.3920004013795093,-0.4792133195752619,-0.4557164871712278,-1.8125,0.25,13.0625,-0.25537109375,0.9130859375,0.22216796875
1969/12/31/18:00:28.635,122,1730345077,302950121,RU_myo,-0.6387391753965049,-0.39333785452230785,-0.477620178354008,-0.45735824387745155,-2.1875,-3.4375,14.625,-0.2109375,0.8388671875,0.203125
1969/12/31/18:00:28.649,123,1730345077,317374829,RU_myo,-0.6372835104412787,-0.3950523044518672,-0.475796039781671,-0.4598059727700243,-1.3125,-1.0,19.9375,-0.21142578125,0.91064453125,0.23779296875
1969/12/31/18:00:28.672,124,1730345077,340533007,RU_myo,-0.6354572022559832,-0.3968250796262392,-0.47427371482244,-0.46237262430765735,-0.0625,0.9375,20.625,-0.21826171875,0.9677734375,0.248046875
1969/12/31/18:00:28.695,125,1730345077,363003201,RU_myo,-0.6340690187354342,-0.39805545675161247,-0.47282054944108276,-0.46470319652051173,-2.625,1.0625,16.375,-0.20068359375,0.98388671875,0.24365234375
1969/12/31/18:00:28.723,126,1730345077,391528950,RU_myo,-0.6331290067973384,-0.398833435456006,-0.47115441801382807,-0.4670043531919446,-5.5,0.25,15.375,-0.201171875,0.93896484375,0.2412109375
1969/12/31/18:00:28.732,127,1730345077,400496544,RU_myo,-0.6321130717115415,-0.40012873400993204,-0.4692174659957836,-0.4692174659957836,-3.0625,-2.6875,18.25,-0.19775390625,0.8779296875,0.236328125
1969/12/31/18:00:28.755,128,1730345077,423000896,RU_myo,-0.6307544975014181,-0.4020716622679577,-0.467374740383731,-0.47121968797372515,-0.625,-3.4375,19.8125,-0.19482421875,0.92822265625,0.22900390625
1969/12/31/18:00:28.776,129,1730345077,444049866,RU_myo,-0.6291512054704832,-0.4040140634605295,-0.46589778858877373,-0.47316027704070773,1.125,-1.5625,18.3125,-0.197265625,1.0078125,0.2470703125
1969/12/31/18:00:28.792,130,1730345077,460480356,RU_myo,-0.628220017751318,-0.40520282695530946,-0.4642834620649253,-0.4749643620072629,-2.4375,-2.0,14.5,-0.1875,1.01123046875,0.26318359375
1969/12/31/18:00:28.815,131,1730345077,483079645,RU_myo,-0.627768986683964,-0.40616397106569907,-0.46219079682652725,-0.47677730157253806,-5.25,-4.4375,14.1875,-0.17431640625,0.91650390625,0.24267578125
1969/12/31/18:00:28.836,132,1730345077,503904634,RU_myo,-0.6275339024352544,-0.40726840409944104,-0.45969513257560163,-0.4785541070798317,-7.375,-6.875,14.75,-0.16552734375,0.91259765625,0.23193359375
1969/12/31/18:00:28.852,133,1730345077,520443530,RU_myo,-0.6267163027172885,-0.40883946946178945,-0.4579685593135196,-0.4799393324149145,-0.0625,-4.9375,14.625,-0.16796875,0.94091796875,0.25439453125
1969/12/31/18:00:28.875,134,1730345077,543073815,RU_myo,-0.6251866192594854,-0.4110339594604289,-0.45662302667897986,-0.4813399908336159,4.75,-3.125,16.75,-0.158203125,0.97509765625,0.26171875
1969/12/31/18:00:28.896,135,1730345077,563859004,RU_myo,-0.6242349516614807,-0.4122709325844058,-0.45517640491702416,-0.4828849176325416,-0.5,-2.0,13.75,-0.16162109375,0.98828125,0.2666015625
1969/12/31/18:00:28.912,136,1730345077,580388162,RU_myo,-0.6237434838625353,-0.4130011893637746,-0.45389239623147504,-0.4841030639919403,-4.5,-2.625,10.1875,-0.15869140625,0.9482421875,0.2255859375
1969/12/31/18:00:28.935,137,1730345077,603082669,RU_myo,-0.6230313269988367,-0.41435733532475527,-0.45244232239835186,-0.48521738338957204,1.125,-3.9375,12.0625,-0.14404296875,0.91943359375,0.259765625
1969/12/31/18:00:28.956,138,1730345077,623960279,RU_myo,-0.6217087933531577,-0.4160999855778766,-0.45125304977454084,-0.48652817322188796,6.0625,-1.6875,14.3125,-0.13134765625,0.91650390625,0.2841796875
1969/12/31/18:00:28.972,139,1730345077,640378062,RU_myo,-0.6202015423318595,-0.41739405117177597,-0.45053412571283086,-0.4880074328366019,1.75,1.1875,14.125,-0.1513671875,0.98291015625,0.2431640625
1969/12/31/18:00:28.995,140,1730345077,663580866,RU_myo,-0.6193400786622304,-0.41818271767772985,-0.4497356168370098,-0.4891614830979283,-2.3125,-0.5625,11.25,-0.16455078125,1.0087890625,0.22998046875
1969/12/31/18:00:29.016,141,1730345077,684129857,RU_myo,-0.6188577567556005,-0.4190411595546305,-0.4483972326314988,-0.4902647297847869,-1.125,-3.125,10.3125,-0.1376953125,0.9462890625,0.26220703125
1969/12/31/18:00:29.032,142,1730345077,700467121,RU_myo,-0.6179487880298073,-0.4205103357555924,-0.44699821466966017,-0.4914294954287416,2.875,-3.3125,12.625,-0.1123046875,0.88916015625,0.267578125
1969/12/31/18:00:29.055,143,1730345077,723100084,RU_myo,-0.6167257248617264,-0.42166828630080827,-0.4457147915551893,-0.4931364529324838,0.4375,-0.3125,15.125,-0.1279296875,0.95849609375,0.26123046875
1969/12/31/18:00:29.076,144,1730345077,743921313,RU_myo,-0.6156868150166388,-0.42246075867814964,-0.4449814203297297,-0.49441701907710056,-0.5625,0.8125,12.0625,-0.14892578125,1.01416015625,0.25537109375
1969/12/31/18:00:29.092,145,1730345077,760444781,RU_myo,-0.6150634448714003,-0.4233672471792919,-0.4441785822359646,-0.4951388894861749,-0.875,-2.25,8.375,-0.125,0.966796875,0.22900390625
1969/12/31/18:00:29.115,146,1730345077,782929208,RU_myo,-0.6143862715041752,-0.4246448472361231,-0.44301479535599564,-0.4959275695085853,0.75,-4.0,9.875,-0.1083984375,0.92626953125,0.2353515625
1969/12/31/18:00:29.136,147,1730345077,804051138,RU_myo,-0.6133252840854702,-0.42625771559885794,-0.4419433159580943,-0.496812400483205,2.25,-3.5,11.875,-0.10107421875,0.93994140625,0.2294921875
1969/12/31/18:00:29.152,148,1730345077,820438176,RU_myo,-0.6125695793274643,-0.427279030075877,-0.4411330994698527,-0.4975869064717362,0.3125,-2.0,9.625,-0.123046875,0.9873046875,0.23974609375
1969/12/31/18:00:29.175,149,1730345077,842954259,RU_myo,-0.6119182867152387,-0.42851369349966995,-0.4404761894298701,-0.4979083765233311,2.5625,-3.6875,7.8125,-0.1162109375,0.97412109375,0.23779296875
1969/12/31/18:00:29.196,150,1730345077,863987061,RU_myo,-0.6113425441119025,-0.4302040125231907,-0.43923652690160353,-0.4982530228740713,3.375,-6.5625,9.625,-0.09716796875,0.94384765625,0.24658203125
1969/12/31/18:00:29.212,151,1730345077,880431783,RU_myo,-0.6106277095515475,-0.43168113839661126,-0.43772333162455757,-0.4991828122360927,1.125,-5.375,11.4375,-0.083984375,0.9482421875,0.2509765625
1969/12/31/18:00:29.235,152,1730345077,902911258,RU_myo,-0.6102517381515778,-0.43258969097093547,-0.4363125988644494,-0.5000902832697298,-3.625,-4.1875,9.625,-0.09765625,0.99169921875,0.2353515625
1969/12/31/18:00:29.263,153,1730345077,931535126,RU_myo,-0.6102474682233051,-0.4333190343419808,-0.43496686728947853,-0.5006360617897562,-3.0625,-5.6875,7.5625,-0.10498046875,0.96826171875,0.24267578125
1969/12/31/18:00:29.272,154,1730345077,940476045,RU_myo,-0.6101299937649153,-0.4344208558186123,-0.4333222922607681,-0.5012501389208012,-1.5625,-7.0,8.875,-0.08349609375,0.9345703125,0.24462890625
1969/12/31/18:00:29.295,155,1730345077,962868652,RU_myo,-0.6095883469507273,-0.4358300345990332,-0.43174088569577945,-0.5020498340024713,0.6875,-5.75,10.875,-0.0712890625,0.94921875,0.25537109375
1969/12/31/18:00:29.316,156,1730345077,983970098,RU_myo,-0.6089747075903597,-0.4368041673906799,-0.43070099333184686,-0.5028405107072533,-0.375,-3.0625,9.9375,-0.0986328125,0.9951171875,0.25244140625
1969/12/31/18:00:29.332,157,1730345078,584540,RU_myo,-0.6085477698851115,-0.4375367528137964,-0.4298467499048079,-0.503451063462269,1.375,-3.0625,9.0625,-0.10498046875,0.95751953125,0.27197265625
1969/12/31/18:00:29.355,158,1730345078,22987292,RU_myo,-0.6079318204802336,-0.43881435490943477,-0.42856111268067465,-0.5041787741177803,2.0,-4.5,9.9375,-0.0634765625,0.90234375,0.2509765625
1969/12/31/18:00:29.377,159,1730345078,45434651,RU_myo,-0.6068327434566244,-0.4400346052823355,-0.4276452814442892,-0.5052158755238798,1.625,-1.25,11.5,-0.06689453125,0.9697265625,0.24951171875
1969/12/31/18:00:29.392,160,1730345078,60546878,RU_myo,-0.6060351161036461,-0.44070287748080855,-0.4271540561540201,-0.5060057550468611,0.0625,-0.125,9.4375,-0.09912109375,1.02978515625,0.24755859375
1969/12/31/18:00:29.415,161,1730345078,82971084,RU_myo,-0.6061019127116174,-0.4408901638736002,-0.42642574404552114,-0.5063767565973506,-1.875,-2.75,4.875,-0.09375,0.978515625,0.255859375
1969/12/31/18:00:29.437,162,1730345078,105523826,RU_myo,-0.6059727525627729,-0.4415563364680896,-0.4252001376880692,-0.5069811315881715,-1.6875,-4.125,6.75,-0.05712890625,0.89794921875,0.244140625
1969/12/31/18:00:29.452,163,1730345078,120558126,RU_myo,-0.6053640723653091,-0.4422288606068182,-0.42398066445425975,-0.5081420774789357,-2.25,-1.8125,10.0,-0.05419921875,0.93896484375,0.24609375
1969/12/31/18:00:29.475,164,1730345078,142913549,RU_myo,-0.6048270308093037,-0.4426039987314904,-0.42331788957551264,-0.509006804939414,-2.1875,-0.25,8.6875,-0.0869140625,1.0,0.2470703125
1969/12/31/18:00:29.497,165,1730345078,165464441,RU_myo,-0.6047670677250304,-0.4427878773181043,-0.42276934888800943,-0.5093738971877186,-2.1875,-1.75,4.625,-0.08349609375,1.00732421875,0.25634765625
1969/12/31/18:00:29.512,166,1730345078,179867671,RU_myo,-0.6048227750834647,-0.4431501685046455,-0.4220942797656147,-0.5095525074845456,-0.0625,-2.875,2.6875,-0.05126953125,0.93701171875,0.259765625
1969/12/31/18:00:29.535,167,1730345078,202986370,RU_myo,-0.6043891437242073,-0.4438168083573094,-0.4213574319167855,-0.5100963812225512,0.0625,-1.8125,5.3125,-0.03759765625,0.92138671875,0.23828125
1969/12/31/18:00:29.557,168,1730345078,225414857,RU_myo,-0.6039514882299787,-0.4442363462839546,-0.4207398504302216,-0.5107588929867312,-1.875,-0.9375,6.5,-0.0595703125,0.95947265625,0.23388671875
1969/12/31/18:00:29.571,169,1730345078,239740551,RU_myo,-0.6038506066754454,-0.4442519270255273,-0.4203273830780061,-0.511204030878667,-3.625,-0.5625,3.9375,-0.06787109375,0.99609375,0.2392578125
1969/12/31/18:00:29.595,170,1730345078,263010403,RU_myo,-0.6038388916094679,-0.4444874315334298,-0.41958685868355483,-0.5116213289227985,-1.5625,-2.125,4.1875,-0.052734375,0.94775390625,0.25732421875
1969/12/31/18:00:29.617,171,1730345078,285497197,RU_myo,-0.6036588256298145,-0.444733784487358,-0.41861246436102495,-0.5124172985530202,-3.0,-1.5,5.4375,-0.0361328125,0.9375,0.25439453125
1969/12/31/18:00:29.632,172,1730345078,299884553,RU_myo,-0.6035946222103009,-0.4446704163219669,-0.4178778946687493,-0.5131469750803044,-5.0,-0.375,4.75,-0.0576171875,0.9697265625,0.240234375
1969/12/31/18:00:29.655,173,1730345078,322997651,RU_myo,-0.6034139144849722,-0.4453435151205464,-0.4172692356967488,-0.5132710651176915,-1.375,-3.6875,4.375,-0.05029296875,0.9521484375,0.2197265625
1969/12/31/18:00:29.677,174,1730345078,345544555,RU_myo,-0.6029393444769756,-0.44681839669156176,-0.4163632157123117,-0.5132827094899651,-0.125,-6.0625,5.5,-0.0166015625,0.96435546875,0.20166015625
1969/12/31/18:00:29.691,175,1730345078,359823476,RU_myo,-0.602700336834082,-0.44785975409503737,-0.41520712825136813,-0.5135922364008911,1.9375,-4.75,3.8125,0.00634765625,1.01220703125,0.29150390625
1969/12/31/18:00:29.714,176,1730345078,382844923,RU_myo,-0.6020713806881499,-0.44894445781470155,-0.4151942831040531,-0.5133932543688512,9.875,-1.8125,2.5625,-0.02490234375,1.00244140625,0.32275390625
1969/12/31/18:00:29.737,177,1730345078,405611016,RU_myo,-0.6028026251074552,-0.4478450605485984,-0.4143390727806534,-0.5141856957102673,-8.1875,0.25,1.875,-0.06005859375,0.99951171875,0.29248046875
1969/12/31/18:00:29.751,178,1730345078,419816237,RU_myo,-0.6044531071595861,-0.4461381475501388,-0.41293716912780287,-0.5148592903875473,-17.9375,-2.3125,-2.125,-0.05615234375,0.99169921875,0.23974609375
1969/12/31/18:00:29.775,179,1730345078,442968982,RU_myo,-0.6055400677851371,-0.44545826998223303,-0.4120138074599336,-0.5149104567529935,-8.125,-3.125,-4.8125,-0.00439453125,0.9521484375,0.2568359375
1969/12/31/18:00:29.797,180,1730345078,465526452,RU_myo,-0.6053822234500393,-0.44565994511868,-0.4115427293803423,-0.5152981260801172,3.6875,0.5625,-0.8125,0.02685546875,0.927734375,0.32470703125
1969/12/31/18:00:29.818,181,1730345078,486543589,RU_myo,-0.6044691630472173,-0.44553966985507737,-0.4117885140427681,-0.5162767215485068,4.1875,6.5625,2.6875,-0.0029296875,0.962890625,0.32177734375
1969/12/31/18:00:29.835,182,1730345078,503491495,RU_myo,-0.6040178938943835,-0.44460648247151496,-0.41256552114034883,-0.5169885398786827,-0.25,8.5625,-0.4375,-0.03955078125,0.98876953125,0.28857421875
1969/12/31/18:00:29.857,183,1730345078,525420729,RU_myo,-0.6032163854990695,-0.44441741392191664,-0.4137195343280243,-0.5171646753054547,5.75,7.4375,-2.75,-0.0029296875,0.927734375,0.27392578125
1969/12/31/18:00:29.878,184,1730345078,546552264,RU_myo,-0.6014496179456256,-0.44521308603889787,-0.4151253476677976,-0.5174114521504833,10.6875,8.25,1.5625,0.00390625,0.94091796875,0.2509765625
1969/12/31/18:00:29.902,185,1730345078,570528942,RU_myo,-0.5998752088968277,-0.44528329678616896,-0.41617143651108635,-0.5183375876651498,5.8125,9.625,3.75,-0.01708984375,0.99072265625,0.271484375
1969/12/31/18:00:29.917,186,1730345078,585503784,RU_myo,-0.5993386199422408,-0.44388897992259857,-0.4169736712266181,-0.5195081805446389,-3.1875,11.5,-0.5,-0.02978515625,0.97509765625,0.27197265625
1969/12/31/18:00:29.938,187,1730345078,606560357,RU_myo,-0.5992569734104801,-0.4414935274112856,-0.41714241911199024,-0.5215043118232562,-11.75,13.3125,0.0625,-0.0244140625,0.94140625,0.26220703125
1969/12/31/18:00:29.954,188,1730345078,622979901,RU_myo,-0.5982227909180293,-0.43997022033544925,-0.41763298900755713,-0.5235822610983242,-7.25,14.125,3.5625,-0.0146484375,0.9326171875,0.2421875
1969/12/31/18:00:29.977,189,1730345078,645440169,RU_myo,-0.5971103937965829,-0.4391666387735293,-0.4190880084015878,-0.5243635019930745,-4.9375,12.0,0.0625,-0.03173828125,1.0048828125,0.1640625
1969/12/31/18:00:29.998,190,1730345078,666474604,RU_myo,-0.5981834532179687,-0.4374227945325152,-0.4200284180232691,-0.5238453809784538,-19.8125,3.1875,-9.5625,-0.07861328125,1.0546875,0.0634765625
1969/12/31/18:00:30.014,191,1730345078,682340686,RU_myo,-0.6025574958483643,-0.4346006206762081,-0.41854950942247365,-0.5223629704209612,-39.8125,-12.4375,-18.875,-0.09326171875,1.0751953125,0.03515625
1969/12/31/18:00:30.037,192,1730345078,705567622,RU_myo,-0.6103039810280426,-0.4298370938380504,-0.4133588863502933,-0.5214437213903597,-65.25,-25.5,-24.9375,-0.06787109375,1.130859375,0.10400390625
1969/12/31/18:00:30.058,193,1730345078,726622973,RU_myo,-0.6217130518331295,-0.42135141944202675,-0.404934337774891,-0.5215017206158921,-94.0,-30.4375,-36.625,-0.02978515625,1.20751953125,0.24169921875
1969/12/31/18:00:30.074,194,1730345078,742168102,RU_myo,-0.6381567151585529,-0.40672115051803714,-0.39219539514239293,-0.5229882261088026,-136.75,-36.0625,-48.375,-0.02685546875,1.22314453125,0.25927734375
1969/12/31/18:00:30.097,195,1730345078,765488720,RU_myo,-0.6608599951094538,-0.38584751469172207,-0.3728475905175151,-0.5247575025813709,-197.4375,-55.375,-64.0625,-0.07080078125,1.1845703125,0.1591796875
1969/12/31/18:00:30.118,196,1730345078,786505909,RU_myo,-0.6880803744320142,-0.3591152140462987,-0.34635942211297505,-0.5268935490927424,-254.0,-74.0625,-73.125,-0.0859375,1.03759765625,0.08203125
1969/12/31/18:00:30.134,197,1730345078,802224111,RU_myo,-0.7170640943475634,-0.3291451749779904,-0.31571815133713044,-0.5270717098293947,-278.25,-87.9375,-84.6875,-0.03369140625,0.8583984375,0.09423828125
1969/12/31/18:00:30.157,198,1730345078,825373898,RU_myo,-0.7458749487020846,-0.3002175658837701,-0.28367783009306025,-0.5225579994098067,-267.0625,-104.3125,-99.0,0.03173828125,0.6171875,0.158203125
1969/12/31/18:00:30.178,199,1730345078,846491402,RU_myo,-0.7716751153513699,-0.27769074460999155,-0.2537666189205154,-0.5128429290017052,-216.875,-117.4375,-106.0625,0.08984375,0.39404296875,0.22705078125
1969/12/31/18:00:30.194,200,1730345078,862368440,RU_myo,-0.792620881659201,-0.2662820440963343,-0.22850331723508496,-0.4986303690733558,-137.125,-129.375,-102.875,0.125,0.23974609375,0.29541015625
1969/12/31/18:00:30.217,201,1730345078,885513214,RU_myo,-0.8083603952427451,-0.26866005736946497,-0.20756766358781245,-0.4809271358635584,-48.5625,-147.25,-92.375,0.16162109375,0.1689453125,0.318359375
1969/12/31/18:00:30.238,202,1730345078,906460394,RU_myo,-0.8191613978908255,-0.2836122050364079,-0.18822036589892013,-0.4616403526781556,23.875,-170.3125,-73.9375,0.208984375,0.158203125,0.33935546875
1969/12/31/18:00:30.254,203,1730345078,922362097,RU_myo,-0.825412073135731,-0.30766801690899287,-0.16771904591666584,-0.44261227110176876,70.4375,-194.0,-49.625,0.2783203125,0.23095703125,0.37255859375
1969/12/31/18:00:30.277,204,1730345078,945439939,RU_myo,-0.8275320677871999,-0.3367742422044228,-0.14391331335955582,-0.4255146822488648,91.1875,-214.4375,-20.1875,0.359375,0.3037109375,0.39892578125
1969/12/31/18:00:30.300,205,1730345078,968408854,RU_myo,-0.8260503150953398,-0.3662451378564562,-0.11485974828292793,-0.4126894887827623,81.625,-228.75,18.8125,0.43017578125,0.376953125,0.31005859375
1969/12/31/18:00:30.321,206,1730345078,989086879,RU_myo,-0.8231486024347706,-0.39219640537153083,-0.07842707452574185,-0.40306023359377363,48.0,-247.6875,49.9375,0.49462890625,0.46630859375,0.34033203125
1969/12/31/18:00:30.337,207,1730345079,5460825,RU_myo,-0.8210320909895084,-0.4127436282882662,-0.03692294767328124,-0.39266486831387026,9.375,-262.25,54.875,0.5029296875,0.5556640625,0.41796875
1969/12/31/18:00:30.360,208,1730345079,28050314,RU_myo,-0.818691945091015,-0.43101256271304217,0.011657235836617255,-0.3792568769043959,-17.8125,-295.8125,56.6875,0.61865234375,0.54931640625,0.251953125
1969/12/31/18:00:30.388,209,1730345079,56409227,RU_myo,-0.813737973473693,-0.4477298262508822,0.0695153042665969,-0.36405512726097494,-36.25,-342.0625,76.25,0.7255859375,0.4541015625,0.35693359375
1969/12/31/18:00:30.397,210,1730345079,65363942,RU_myo,-0.8040338890661648,-0.4645135820314696,0.13066923914457712,-0.34739341859455064,-29.875,-363.125,86.9375,0.966796875,0.5341796875,0.5107421875
1969/12/31/18:00:30.419,211,1730345079,87788960,RU_myo,-0.7895891749280174,-0.48210287491353554,0.19011906005262225,-0.32860385853076024,-11.5,-368.125,82.25,1.04638671875,0.58740234375,0.5556640625
1969/12/31/18:00:30.442,212,1730345079,110649759,RU_myo,-0.7694507248180247,-0.5005366379180313,0.24913919716880914,-0.3087690344137691,8.0,-377.875,85.8125,1.10693359375,0.53369140625,0.4599609375
1969/12/31/18:00:30.457,213,1730345079,125463945,RU_myo,-0.7426369552839378,-0.5241425190646333,0.3032678361937777,-0.28599578997867625,55.8125,-385.75,64.3125,1.04833984375,0.48876953125,0.45849609375
1969/12/31/18:00:30.480,214,1730345079,147866202,RU_myo,-0.7144427806297392,-0.5444071077410964,0.35313223378811476,-0.2617060177123118,50.4375,-371.625,54.8125,1.3447265625,0.7880859375,0.51611328125
1969/12/31/18:00:30.502,215,1730345079,170482528,RU_myo,-0.6891182349190065,-0.5567386891268423,0.3964672796062232,-0.24077330942834826,26.5625,-318.6875,59.9375,1.52978515625,0.87646484375,0.52685546875
1969/12/31/18:00:30.517,216,1730345079,185421913,RU_myo,-0.670139772048542,-0.5624779726046779,0.431074427138329,-0.22069448230669653,-4.5625,-259.9375,42.0625,1.54443359375,0.89404296875,0.53955078125
1969/12/31/18:00:30.540,217,1730345079,207928034,RU_myo,-0.6537173142493559,-0.5679668869764266,0.45816972066753003,-0.200369147855535,-5.6875,-224.625,14.5,1.328125,0.75732421875,0.408203125
1969/12/31/18:00:30.563,218,1730345079,230891972,RU_myo,-0.642186279558621,-0.5694963100704706,0.4802664734695674,-0.1805958184008705,-28.625,-187.4375,6.25,1.1806640625,0.72998046875,0.43115234375
1969/12/31/18:00:30.577,219,1730345079,245386858,RU_myo,-0.6369458339220959,-0.565902814500352,0.4978504376487674,-0.1618608999196434,-59.4375,-146.1875,3.25,1.12060546875,0.7119140625,0.478515625
1969/12/31/18:00:30.599,220,1730345079,267938719,RU_myo,-0.6418229581653455,-0.5556443715421553,0.5076114057684651,-0.14715054698903082,-82.0,-93.9375,-4.0,1.0322265625,0.5849609375,0.42041015625
1969/12/31/18:00:30.621,221,1730345079,289069349,RU_myo,-0.6463285403268628,-0.5493487432938708,0.5121192428595568,-0.13494168108240734,-60.5,-61.875,-22.1875,0.8681640625,0.49365234375,0.29345703125
1969/12/31/18:00:30.645,222,1730345079,312947250,RU_myo,-0.6494624755799371,-0.5475967795229016,0.5117698390882223,-0.128171337159841,-21.375,-32.1875,-32.3125,0.94091796875,0.517578125,0.2509765625
1969/12/31/18:00:30.660,223,1730345079,327807582,RU_myo,-0.6531007472626378,-0.5477599482928861,0.5071128033833527,-0.1274953238979208,4.9375,3.75,-33.375,0.95703125,0.47119140625,0.25390625
1969/12/31/18:00:30.681,224,1730345079,348951797,RU_myo,-0.657017533988014,-0.5482571767593432,0.5003464694504169,-0.1318917687829167,21.1875,28.6875,-20.4375,0.87353515625,0.439453125,0.26513671875
1969/12/31/18:00:30.698,225,1730345079,366181189,RU_myo,-0.6585191745696236,-0.5507293087535187,0.4940877484605712,-0.13757551390118933,28.75,38.25,-15.25,0.76611328125,0.41015625,0.01123046875
1969/12/31/18:00:30.720,226,1730345079,388519872,RU_myo,-0.6575986210066358,-0.5554858965826427,0.4874921278986449,-0.14611946340169724,47.625,47.375,-10.9375,0.84521484375,0.44677734375,-0.1298828125
1969/12/31/18:00:30.741,227,1730345079,408953699,RU_myo,-0.6553972742727658,-0.5609145977432219,0.48089729223273625,-0.15673870370017345,62.25,46.6875,-4.9375,0.927734375,0.48681640625,-0.0830078125
1969/12/31/18:00:30.758,228,1730345079,426071890,RU_myo,-0.6536161942955994,-0.5650554418515883,0.4750298664863806,-0.16686774443964597,55.0,43.6875,2.5625,0.88134765625,0.513671875,-0.05908203125
1969/12/31/18:00:30.780,229,1730345079,447958536,RU_myo,-0.6512730164059308,-0.5691238757366043,0.4704960812925987,-0.1748568261646511,43.25,41.5625,10.375,0.7646484375,0.60888671875,-0.24267578125
1969/12/31/18:00:30.802,230,1730345079,470372322,RU_myo,-0.6473836332741558,-0.5745094880748213,0.4670903125716145,-0.1807205560596564,42.875,30.0,8.6875,0.79345703125,0.70849609375,-0.33984375
1969/12/31/18:00:30.816,231,1730345079,484870354,RU_myo,-0.6431835119758043,-0.5797074394331172,0.46471809263463404,-0.1851792347062621,41.8125,15.125,0.0625,0.90673828125,0.6591796875,-0.26220703125
1969/12/31/18:00:30.846,232,1730345079,514005853,RU_myo,-0.6400666287696732,-0.5825112906434406,0.46416579687168547,-0.1885349305110633,25.125,8.25,3.5625,0.8681640625,0.556640625,-0.22802734375
1969/12/31/18:00:30.861,233,1730345079,529157836,RU_myo,-0.6368218880834631,-0.5850045809162348,0.4642195975429193,-0.19164469317443683,22.25,7.5,9.0,0.8427734375,0.591796875,-0.271484375
1969/12/31/18:00:30.885,234,1730345079,552936337,RU_myo,-0.633640426558657,-0.588232174067842,0.4629932841334976,-0.1952432791910175,29.6875,10.375,5.5,0.83154296875,0.6044921875,-0.22119140625
1969/12/31/18:00:30.900,235,1730345079,567976183,RU_myo,-0.6321978786182278,-0.59069425268075,0.46062921316197775,-0.19805774436340504,22.5625,13.0,-2.5,0.796875,0.55859375,-0.15185546875
1969/12/31/18:00:30.928,236,1730345079,596591474,RU_myo,-0.6313254020686119,-0.5922642789707859,0.4591512954139759,-0.19957792582795444,11.1875,10.75,-3.4375,0.74951171875,0.50244140625,-0.1875
1969/12/31/18:00:30.945,237,1730345079,613032865,RU_myo,-0.6293112941552645,-0.5938511193997404,0.4593343807402309,-0.20079857994091943,9.25,5.625,1.5625,0.736328125,0.47802734375,-0.27685546875
1969/12/31/18:00:30.960,238,1730345079,628030479,RU_myo,-0.6259813068948504,-0.5962569605163606,0.4601475304875466,-0.20221100524011695,14.5625,1.125,2.625,0.76123046875,0.47265625,-0.31396484375
