time,.header.seq,.header.stamp.secs,.header.stamp.nsecs,.header.frame_id,.orientation.x,.orientation.y,.orientation.z,.orientation.w,.angular_velocity.x,.angular_velocity.y,.angular_velocity.z,.linear_acceleration.x,.linear_acceleration.y,.linear_acceleration.z
1969/12/31/18:00:03.504,1,1730348738,460799441,RL_myo,0.7293634304584028,0.34380788316085215,-0.320736805611624,-0.49694368625877117,70.9375,176.5,-199.75,-0.24267578125,0.4521484375,0.29736328125
1969/12/31/18:00:03.527,2,1730348738,483381499,RL_myo,0.7088166086384375,0.39215936540962376,-0.30139812395217463,-0.5029405713580233,176.0625,166.0,-205.6875,-0.3349609375,0.59033203125,0.314453125
1969/12/31/18:00:03.542,3,1730348738,498305192,RL_myo,0.6836064705479528,0.441353427547522,-0.28241492314512295,-0.5080660947179606,192.125,159.4375,-213.25,-0.59033203125,0.76220703125,0.30908203125
1969/12/31/18:00:03.571,4,1730348738,528373833,RL_myo,0.6586311194397716,0.48553521964075463,-0.25976592014972366,-0.5128179654835475,163.5625,161.0,-211.3125,-0.7255859375,0.8896484375,0.42431640625
1969/12/31/18:00:03.585,5,1730348738,541869586,RL_myo,0.6363701699320788,0.5236351129721182,-0.2326724619011207,-0.5164327649909187,124.0,169.1875,-205.0625,-0.67236328125,0.87646484375,0.513671875
1969/12/31/18:00:03.602,6,1730348738,558415101,RL_myo,0.6176739254844466,0.5558454979631279,-0.20153748042980657,-0.5185531295371401,81.8125,176.4375,-193.4375,-0.67724609375,0.7080078125,0.4482421875
1969/12/31/18:00:03.624,7,1730348738,580859760,RL_myo,0.6005284034821804,0.5835605311203503,-0.1722422151262032,-0.5188018527897686,68.8125,164.875,-170.125,-0.75732421875,0.6435546875,0.404296875
1969/12/31/18:00:03.645,8,1730348738,602020654,RL_myo,0.5840565785433411,0.607433490402689,-0.15045453716264354,-0.5169776591349252,79.4375,136.625,-132.5625,-0.71435546875,0.5087890625,0.4482421875
1969/12/31/18:00:03.661,9,1730348738,617765904,RL_myo,0.5695813830679352,0.6262831731311704,-0.13525421612500474,-0.5148327224794291,75.3125,103.1875,-98.875,-0.62109375,0.373046875,0.4306640625
1969/12/31/18:00:03.684,10,1730348738,640846787,RL_myo,0.5581599510060253,0.6388474802821288,-0.1241440503385736,-0.5147034299435551,69.5,72.125,-60.0625,-0.6064453125,0.34765625,0.39404296875
1969/12/31/18:00:03.705,11,1730348738,661993087,RL_myo,0.5496313253188262,0.648021741355911,-0.12188936775810061,-0.5129485461387469,74.125,42.9375,-12.375,-0.60546875,0.357421875,0.3798828125
1969/12/31/18:00:03.721,12,1730348738,677676818,RL_myo,0.5440720800030541,0.6543025238537962,-0.1275035421950168,-0.5095258833145048,74.0625,16.4375,26.5,-0.486328125,0.3544921875,0.29931640625
1969/12/31/18:00:03.744,13,1730348738,700809344,RL_myo,0.5430346423089774,0.6549130844077022,-0.13897829386731947,-0.5068404709153363,49.5625,-20.75,58.0,-0.466796875,0.48681640625,0.20068359375
1969/12/31/18:00:03.767,14,1730348738,723923597,RL_myo,0.5443248024376037,0.6516882614517039,-0.15777972799968665,-0.5041016532106043,42.375,-55.9375,83.1875,-0.3515625,0.703125,0.0888671875
1969/12/31/18:00:03.781,15,1730348738,737730940,RL_myo,0.5406658728362148,0.651142868753301,-0.18201237669875733,-0.5005645544287421,81.25,-68.9375,85.5625,-0.22705078125,0.6181640625,-0.005859375
1969/12/31/18:00:03.804,16,1730348738,760917035,RL_myo,0.5382248083355127,0.6490070749638814,-0.20862467621805197,-0.49555990234475245,86.0625,-71.3125,108.5,-0.11279296875,0.48583984375,0.162109375
1969/12/31/18:00:03.827,17,1730348738,783426720,RL_myo,0.5405212808383668,0.6436085034372829,-0.23919409435473798,-0.48620060107931684,74.5,-71.0,152.6875,-0.0048828125,0.43994140625,0.14013671875
1969/12/31/18:00:03.841,18,1730348738,797789392,RL_myo,0.5439437370164578,0.6371441506636898,-0.27227704340556763,-0.473326265772288,76.875,-68.3125,176.0625,0.06201171875,0.63037109375,0.001953125
1969/12/31/18:00:03.864,19,1730348738,820827245,RL_myo,0.5437654248399031,0.6319617475353414,-0.30511655166401114,-0.46026883698705906,93.0,-69.125,161.75,0.17333984375,0.82763671875,-0.0380859375
1969/12/31/18:00:03.887,20,1730348738,843433243,RL_myo,0.5386921460715719,0.6300000375878955,-0.33465318795722054,-0.4482387401710428,111.375,-62.5,128.0,0.2041015625,0.9189453125,-0.0087890625
1969/12/31/18:00:03.908,21,1730348738,864481618,RL_myo,0.533201780255325,0.6276229288422055,-0.3593740936519407,-0.43890270167308176,92.6875,-59.875,103.75,0.14013671875,0.8115234375,-0.12255859375
1969/12/31/18:00:03.932,22,1730348738,888309501,RL_myo,0.5329660039906059,0.6206746787197058,-0.37915538442391705,-0.43237874167080304,32.625,-57.625,82.375,0.19091796875,0.96826171875,-0.20068359375
1969/12/31/18:00:03.947,23,1730348738,903336631,RL_myo,0.5319236893082588,0.6135890818836404,-0.39508227663710377,-0.4295062537765023,23.25,-59.875,56.5625,0.18310546875,1.146484375,-0.14453125
1969/12/31/18:00:03.968,24,1730348738,924395959,RL_myo,0.5298420967415627,0.6083937357815801,-0.4066130685971997,-0.42870762441109733,16.5625,-51.4375,37.8125,0.068359375,1.07275390625,-0.15087890625
1969/12/31/18:00:03.984,25,1730348738,940927602,RL_myo,0.530272989079663,0.60290476359679,-0.415099746631076,-0.42779504839541416,-11.875,-37.125,35.4375,0.07421875,1.0009765625,-0.3134765625
1969/12/31/18:00:04.014,26,1730348738,970850607,RL_myo,0.5284686262224026,0.6013482219384513,-0.4261686241955204,-0.4212855692061704,33.25,-21.625,40.125,0.189453125,0.97021484375,-0.23828125
1969/12/31/18:00:04.028,27,1730348738,984366855,RL_myo,0.5280721154789627,0.6004592547482703,-0.43664215373745946,-0.4122282787731061,49.0,-4.9375,48.5625,0.197265625,0.9306640625,-0.05419921875
1969/12/31/18:00:04.044,28,1730348739,798845,RL_myo,0.5308019482022438,0.5984262506752904,-0.4412058507018536,-0.40678337182568186,7.625,6.5625,40.75,0.0244140625,1.00244140625,-0.123046875
1969/12/31/18:00:04.067,29,1730348739,23368134,RL_myo,0.529249563400999,0.5991976662331459,-0.44550715756705017,-0.40296455052166946,16.8125,-1.375,27.8125,-0.111328125,1.02392578125,-0.26904296875
1969/12/31/18:00:04.088,30,1730348739,44415802,RL_myo,0.5263253490712664,0.6003636940119421,-0.4503948452739041,-0.3996117430557325,31.1875,-7.5,22.8125,-0.0859375,1.015625,-0.15966796875
1969/12/31/18:00:04.104,31,1730348739,60907736,RL_myo,0.5241766656032185,0.6016312753668985,-0.45374118911205474,-0.39673361975092225,28.9375,-2.4375,14.75,-0.041015625,0.99951171875,-0.10107421875
1969/12/31/18:00:04.127,32,1730348739,83341716,RL_myo,0.5216702886506767,0.6036409447473022,-0.4558740360280688,-0.39453337379641673,24.0,0.3125,11.25,-0.12060546875,1.02392578125,-0.1650390625
1969/12/31/18:00:04.148,33,1730348739,104439788,RL_myo,0.5203180537361622,0.6035079079581434,-0.4581240247910421,-0.3939158614443626,8.8125,-7.0,17.125,-0.14453125,1.03466796875,-0.1884765625
1969/12/31/18:00:04.164,34,1730348739,120769800,RL_myo,0.5194170957488237,0.6024261733303043,-0.4611276331824163,-0.3932555050422645,4.5,-10.5625,19.0625,-0.080078125,1.0302734375,-0.20947265625
1969/12/31/18:00:04.187,35,1730348739,143415034,RL_myo,0.5198865088550713,0.6010005227395969,-0.46220950123966364,-0.3935463969356069,3.5,-6.25,8.0,0.00048828125,1.04736328125,-0.0478515625
1969/12/31/18:00:04.192,36,1730348739,148736773,RL_myo,0.5203877961336005,0.5993676000506635,-0.4620379564545339,-0.39557040895400714,-16.75,-8.1875,3.5625,-0.05908203125,0.98193359375,-0.2099609375
1969/12/31/18:00:04.223,37,1730348739,180145603,RL_myo,0.5186804967015181,0.5997357684854221,-0.4629549973500841,-0.39618205508231985,2.4375,-8.0625,-1.625,-0.025390625,0.9501953125,-0.208984375
1969/12/31/18:00:04.237,38,1730348739,193802986,RL_myo,0.5150230088493841,0.6021215906967498,-0.46533958514668217,-0.39453765456297923,23.4375,-5.6875,-0.4375,-0.01416015625,0.8046875,-0.21630859375
1969/12/31/18:00:04.252,39,1730348739,208810463,RL_myo,0.5110471167393563,0.6043087904975954,-0.4689939143706215,-0.39202861946935214,27.5625,-7.0625,9.125,-0.05029296875,0.91650390625,-0.27001953125
1969/12/31/18:00:04.275,40,1730348739,231261166,RL_myo,0.5059125219272355,0.606741027926004,-0.47313715405717566,-0.3899475331877316,31.5,-12.625,5.3125,-0.03759765625,1.12255859375,-0.32763671875
1969/12/31/18:00:04.290,41,1730348739,246318632,RL_myo,0.5006824753816335,0.6094495326936011,-0.4764509816931648,-0.3884363371118756,32.25,-12.125,-1.4375,-0.02392578125,1.02099609375,-0.27880859375
1969/12/31/18:00:04.312,42,1730348739,268772663,RL_myo,0.5000131610389225,0.6089027459136097,-0.4783451102370649,-0.38782759097184005,3.875,-6.0,10.875,-0.02490234375,0.98828125,-0.24072265625
1969/12/31/18:00:04.335,43,1730348739,291295484,RL_myo,0.49976623142721854,0.6074344815783682,-0.48041768533996543,-0.3878864680898844,-4.0625,-8.9375,16.75,-0.08349609375,1.04248046875,-0.28564453125
1969/12/31/18:00:04.350,44,1730348739,306297472,RL_myo,0.4995769059684458,0.6053517108607264,-0.4820596705361985,-0.38934649763869467,-4.375,-14.375,9.1875,-0.0234375,1.01611328125,-0.18408203125
1969/12/31/18:00:04.372,45,1730348739,328781307,RL_myo,0.5005593645990221,0.603344631028086,-0.4826146684409789,-0.39051076877265495,-7.3125,-7.0,8.375,-0.01904296875,0.97119140625,-0.14208984375
1969/12/31/18:00:04.394,46,1730348739,351233719,RL_myo,0.501582883633922,0.6019849088928417,-0.4834555878880867,-0.39025565319485245,-0.375,-1.125,13.1875,-0.03857421875,0.9453125,-0.11474609375
1969/12/31/18:00:04.409,47,1730348739,366269668,RL_myo,0.5021566905066821,0.6013428606869857,-0.4848219998413244,-0.3888097871067904,7.0,2.0,15.75,-0.03466796875,0.94970703125,-0.1337890625
1969/12/31/18:00:04.434,48,1730348739,390269842,RL_myo,0.5006745229916544,0.6026649079628911,-0.4865753135791136,-0.3864770303039322,22.125,2.75,10.875,-0.05322265625,0.99853515625,-0.1591796875
1969/12/31/18:00:04.455,49,1730348739,411311854,RL_myo,0.49809091747248907,0.6047767309441116,-0.48869182406595024,-0.3838370028163808,29.6875,1.625,9.375,-0.0654296875,1.00146484375,-0.177734375
1969/12/31/18:00:04.470,50,1730348739,426251684,RL_myo,0.49596269486569344,0.6061901901804169,-0.49138514107355374,-0.38091350955658293,26.5625,0.6875,14.4375,-0.05078125,1.04150390625,-0.216796875
1969/12/31/18:00:04.492,51,1730348739,448793030,RL_myo,0.4942576309716356,0.6070494440162865,-0.4940134928481623,-0.37835305685270054,21.0625,-0.25,15.4375,-0.0439453125,1.05224609375,-0.24755859375
1969/12/31/18:00:04.515,52,1730348739,471317182,RL_myo,0.49316814292586136,0.6073658651305998,-0.4957316406984958,-0.3770172795610205,10.9375,-1.5,11.5,-0.0390625,1.0302734375,-0.25927734375
1969/12/31/18:00:04.529,53,1730348739,486174037,RL_myo,0.4924346684139926,0.6071204321658384,-0.49750061753129077,-0.3760399097792028,7.0625,-3.0,12.1875,-0.0302734375,1.00341796875,-0.25830078125
1969/12/31/18:00:04.552,54,1730348739,508700885,RL_myo,0.49152417554964933,0.6070656215096004,-0.49933680369696776,-0.3748840787564816,9.5,-2.75,13.5625,-0.046875,0.99169921875,-0.25439453125
1969/12/31/18:00:04.574,55,1730348739,531219810,RL_myo,0.4898132918581404,0.6077957333736277,-0.5008607941417944,-0.3739060717661019,12.6875,-2.9375,7.125,-0.033203125,1.0263671875,-0.27685546875
1969/12/31/18:00:04.589,56,1730348739,546209274,RL_myo,0.48724523332449327,0.6091328358484833,-0.5020157890635045,-0.3735363682758235,13.875,-5.5625,-0.5,-0.01806640625,1.12890625,-0.31787109375
1969/12/31/18:00:04.612,57,1730348739,568713086,RL_myo,0.48565467217394753,0.6099217216330599,-0.5016458150807686,-0.3748152999648375,5.5625,-5.9375,-8.375,0.0078125,1.2392578125,-0.283203125
1969/12/31/18:00:04.628,58,1730348739,585193115,RL_myo,0.48524603457060944,0.6104334077661214,-0.4997118597521484,-0.37708805051285854,-2.0,-2.6875,-15.5,0.03466796875,1.29296875,-0.2431640625
1969/12/31/18:00:04.650,59,1730348739,606255519,RL_myo,0.4843770552673803,0.6127955689118572,-0.49566860708497923,-0.37970131814747643,2.125,5.125,-27.6875,-0.01416015625,1.30322265625,-0.19677734375
1969/12/31/18:00:04.672,60,1730348739,628768604,RL_myo,0.48163118914332864,0.6176182997010953,-0.49035926670605784,-0.3822653830445656,16.625,8.875,-42.5625,-0.04052734375,1.306640625,-0.1455078125
1969/12/31/18:00:04.695,61,1730348739,651220631,RL_myo,0.47692158120870703,0.6241972115461284,-0.4845508616861947,-0.38488194152829625,27.375,8.8125,-54.625,-0.05810546875,1.30859375,-0.15380859375
1969/12/31/18:00:04.717,62,1730348739,673752257,RL_myo,0.4708199177339957,0.6316457517019861,-0.47814405438528934,-0.3882402769906594,29.625,5.625,-64.5,-0.0810546875,1.31396484375,-0.18505859375
1969/12/31/18:00:04.740,63,1730348739,696248494,RL_myo,0.4645373507310656,0.6393415778357525,-0.4710680952492924,-0.39184467109360677,26.5,6.0,-71.5625,-0.06201171875,1.22216796875,-0.208984375
1969/12/31/18:00:04.755,64,1730348739,711300848,RL_myo,0.4584312442618444,0.6471503771679318,-0.4636802240257265,-0.39501624455633827,26.5,8.75,-73.9375,-0.05126953125,1.1298828125,-0.1875
1969/12/31/18:00:04.769,65,1730348739,726136184,RL_myo,0.4515541770251146,0.6557240502542316,-0.4555826408915187,-0.39820754946091474,29.375,10.6875,-79.5625,-0.08056640625,1.07177734375,-0.1884765625
1969/12/31/18:00:04.792,66,1730348739,748652761,RL_myo,0.4435576917243972,0.6649397954651964,-0.4466705914461454,-0.40199132485164163,30.375,9.6875,-86.375,-0.14111328125,1.04931640625,-0.2138671875
1969/12/31/18:00:04.815,67,1730348739,771286840,RL_myo,0.4350062746729265,0.6741468084414864,-0.4372646207039211,-0.40631917644137394,27.375,6.625,-92.0,-0.1455078125,0.9677734375,-0.23583984375
1969/12/31/18:00:04.830,68,1730348739,786300669,RL_myo,0.4277306233073178,0.6821839578632836,-0.4274864848236949,-0.4110071371791493,17.5,6.4375,-90.375,-0.1318359375,0.91357421875,-0.2275390625
1969/12/31/18:00:04.852,69,1730348739,808635244,RL_myo,0.4218770297448882,0.6892123003297566,-0.4172383355520914,-0.4158345202042713,6.25,7.75,-86.375,-0.14990234375,0.845703125,-0.244140625
1969/12/31/18:00:04.874,70,1730348739,831249828,RL_myo,0.41687493688928207,0.6955036465378286,-0.40698712725881886,-0.4205370886042684,0.625,8.9375,-80.875,-0.1689453125,0.74169921875,-0.21484375
1969/12/31/18:00:04.889,71,1730348739,846250130,RL_myo,0.4124181551382686,0.7016052528214293,-0.3965488758226034,-0.42474736445274697,-3.0625,12.3125,-77.1875,-0.1953125,0.69384765625,-0.232421875
1969/12/31/18:00:04.912,72,1730348739,868727224,RL_myo,0.4079631341584151,0.7078319070668971,-0.38641750484095244,-0.4280439048253988,-1.125,15.625,-71.4375,-0.236328125,0.64599609375,-0.23828125
1969/12/31/18:00:04.934,73,1730348739,891146943,RL_myo,0.4038120221030153,0.7136291055665742,-0.3770173610233261,-0.43072875453158693,-1.0625,16.9375,-63.5,-0.28173828125,0.62353515625,-0.2509765625
1969/12/31/18:00:04.949,74,1730348739,906073261,RL_myo,0.4003369237290874,0.7186410946769745,-0.36865909732027563,-0.43286925797937004,-1.5625,16.3125,-53.375,-0.31396484375,0.63720703125,-0.25048828125
1969/12/31/18:00:04.972,75,1730348739,928549820,RL_myo,0.3983781017808208,0.7229643964445874,-0.36096339726241367,-0.43396174408788657,-5.125,20.4375,-44.75,-0.2919921875,0.615234375,-0.23779296875
1969/12/31/18:00:04.994,76,1730348739,951255355,RL_myo,0.3974678212549628,0.7271244094917647,-0.3538269287185226,-0.43372333197754387,-5.3125,27.0625,-33.875,-0.33154296875,0.59228515625,-0.228515625
1969/12/31/18:00:05.010,77,1730348739,966234006,RL_myo,0.3961974564096176,0.7314790198140283,-0.3475501951619724,-0.4326371238686442,-1.125,28.9375,-26.8125,-0.38427734375,0.599609375,-0.259765625
1969/12/31/18:00:05.032,78,1730348739,988849637,RL_myo,0.3951441393445574,0.7359666407501811,-0.3422873545635276,-0.43017854403775724,2.0,32.1875,-20.625,-0.36962890625,0.59423828125,-0.28662109375
1969/12/31/18:00:05.055,79,1730348740,11297706,RL_myo,0.39475860492774173,0.740019802836869,-0.33812038826525803,-0.42686173204462363,3.1875,33.5,-12.3125,-0.365234375,0.61328125,-0.29296875
1969/12/31/18:00:05.073,80,1730348740,29231056,RL_myo,0.3955726650950815,0.7434764131342675,-0.33429277684396874,-0.4230997862118662,-3.0,35.125,-5.0,-0.396484375,0.658203125,-0.3330078125
1969/12/31/18:00:05.092,81,1730348740,48763692,RL_myo,0.3969710524594905,0.7463348753804813,-0.3308702452925735,-0.41943189921611607,-5.6875,34.625,1.0,-0.42919921875,0.66259765625,-0.33447265625
1969/12/31/18:00:05.115,82,1730348740,71352640,RL_myo,0.39925306983206144,0.7488818091682559,-0.32802109727526346,-0.41493997381414977,-7.4375,36.5625,5.8125,-0.3984375,0.6787109375,-0.349609375
1969/12/31/18:00:05.130,83,1730348740,86325281,RL_myo,0.40277006507465046,0.7508527565613502,-0.3256828409210994,-0.4097890918186397,-11.1875,39.25,12.875,-0.38525390625,0.69677734375,-0.3525390625
1969/12/31/18:00:05.152,84,1730348740,108721741,RL_myo,0.4074228651791384,0.752282668664102,-0.32374095534234454,-0.404065822844329,-15.5,41.6875,19.125,-0.3876953125,0.7265625,-0.36181640625
1969/12/31/18:00:05.174,85,1730348740,131164899,RL_myo,0.4120038896711028,0.7536924488383374,-0.32221756052944467,-0.397965238615643,-11.0625,42.5,20.8125,-0.3701171875,0.751953125,-0.33447265625
1969/12/31/18:00:05.189,86,1730348740,146229119,RL_myo,0.41608932893670036,0.7553330564165567,-0.32105469711119905,-0.3914914120287511,-9.1875,42.125,20.75,-0.36279296875,0.7978515625,-0.38720703125
1969/12/31/18:00:05.212,87,1730348740,168764214,RL_myo,0.42100849655428,0.7563871118870966,-0.32030336183196023,-0.3847546480542449,-12.5,41.75,24.3125,-0.33447265625,0.84033203125,-0.40380859375
1969/12/31/18:00:05.236,88,1730348740,192626152,RL_myo,0.4271915078411006,0.756786327435606,-0.31921868638504874,-0.3779964292127355,-19.3125,43.6875,26.9375,-0.3115234375,0.80908203125,-0.37548828125
1969/12/31/18:00:05.257,89,1730348740,213701132,RL_myo,0.4336650317645032,0.7568538203912513,-0.31806171435958147,-0.3714077013774809,-21.25,43.625,27.9375,-0.31396484375,0.83056640625,-0.3662109375
1969/12/31/18:00:05.272,90,1730348740,228802696,RL_myo,0.43970697191513963,0.7569136811104451,-0.31690152667731886,-0.36512036451920676,-20.4375,41.375,26.625,-0.3134765625,0.86181640625,-0.38916015625
1969/12/31/18:00:05.290,91,1730348740,246655121,RL_myo,0.44623926594312174,0.7560615219856995,-0.3162921455501651,-0.35944508783190315,-25.0,36.375,29.5625,-0.296875,0.86376953125,-0.38623046875
1969/12/31/18:00:05.317,92,1730348740,273693478,RL_myo,0.4543492711038297,0.7537900991580194,-0.3161645921974527,-0.35412875751537076,-35.25,32.625,34.75,-0.2490234375,0.865234375,-0.3759765625
1969/12/31/18:00:05.332,93,1730348740,288670791,RL_myo,0.46297131010917725,0.7505201356759978,-0.31678590632388,-0.349319025412633,-39.125,28.1875,41.25,-0.25634765625,0.869140625,-0.3642578125
1969/12/31/18:00:05.350,94,1730348740,306602085,RL_myo,0.4697362570677638,0.7479402409184482,-0.31861009120240735,-0.34412331306497557,-26.625,24.5,42.0,-0.2314453125,0.83056640625,-0.34765625
1969/12/31/18:00:05.371,95,1730348740,327660318,RL_myo,0.47554657774038955,0.7460667205391839,-0.32166993514206815,-0.3372956473614931,-14.5,26.5625,44.5625,-0.1630859375,0.8994140625,-0.3544921875
1969/12/31/18:00:05.392,96,1730348740,348782270,RL_myo,0.480713641865292,0.7447521404317283,-0.3255620322129847,-0.32904104155609304,-7.6875,29.5,47.6875,-0.119140625,0.92822265625,-0.39306640625
1969/12/31/18:00:05.410,97,1730348740,366647407,RL_myo,0.4853656281304743,0.7439180427130558,-0.3295383584351648,-0.32001659812475813,-2.875,31.625,46.3125,-0.0693359375,0.9521484375,-0.40869140625
1969/12/31/18:00:05.431,98,1730348740,387672125,RL_myo,0.48896412071026807,0.7440360293918572,-0.3325883776994446,-0.3109814249180896,1.125,34.1875,39.125,-0.0615234375,0.97412109375,-0.43603515625
1969/12/31/18:00:05.455,99,1730348740,411671162,RL_myo,0.4914742029967672,0.7447799583912759,-0.3350350099663755,-0.3025020057193217,3.6875,33.0,34.25,-0.0849609375,0.9990234375,-0.484375
1969/12/31/18:00:05.470,100,1730348740,426645096,RL_myo,0.49415674582574287,0.7450194218810545,-0.33735231400430843,-0.29487045937304396,2.0625,30.0625,32.8125,-0.07568359375,1.05859375,-0.46728515625
1969/12/31/18:00:05.491,101,1730348740,447783574,RL_myo,0.4982360433710291,0.7439055367641925,-0.3392985624279739,-0.28851669447689016,-8.9375,26.5625,34.0,-0.0859375,1.05908203125,-0.4384765625
1969/12/31/18:00:05.515,102,1730348740,471573450,RL_myo,0.5036725765714956,0.7412873779036372,-0.34101050476308115,-0.2837583384004948,-19.6875,21.4375,34.6875,-0.07861328125,1.025390625,-0.38232421875
1969/12/31/18:00:05.530,103,1730348740,486705781,RL_myo,0.5088005934785499,0.7386642013288641,-0.34241498673400494,-0.27973046064205787,-17.625,18.875,31.125,-0.0673828125,0.97314453125,-0.310546875
1969/12/31/18:00:05.552,104,1730348740,509061816,RL_myo,0.5120362959634145,0.7370783538030985,-0.3443686710961479,-0.2755803881600687,-8.3125,15.875,29.0625,-0.05859375,0.90234375,-0.32470703125
1969/12/31/18:00:05.572,105,1730348740,528587065,RL_myo,0.5143028940885926,0.7358083774315196,-0.3476091836974288,-0.2706407586504652,0.5625,12.875,31.75,-0.00048828125,0.9052734375,-0.32666015625
1969/12/31/18:00:05.594,106,1730348740,551056100,RL_myo,0.5163534189488747,0.734674480364965,-0.35137667055421645,-0.2648905246144345,4.625,14.1875,34.5625,0.02685546875,0.95458984375,-0.33935546875
1969/12/31/18:00:05.611,107,1730348740,567633871,RL_myo,0.5174079078848124,0.7341491466366077,-0.35468412796020343,-0.25983313246026263,7.8125,13.1875,32.375,-0.0283203125,0.9560546875,-0.35693359375
1969/12/31/18:00:05.632,108,1730348740,588694218,RL_myo,0.5179516247512004,0.7334087583090294,-0.35815933703040814,-0.25604608364733505,3.0,7.125,32.875,-0.0771484375,0.96044921875,-0.42041015625
1969/12/31/18:00:05.650,109,1730348740,606618153,RL_myo,0.5194753179816233,0.7314524980251172,-0.36218617517365204,-0.25287113645844966,-5.25,2.375,35.1875,-0.0302734375,0.99462890625,-0.43017578125
1969/12/31/18:00:05.672,110,1730348740,629208914,RL_myo,0.5224744143318467,0.7286564904548583,-0.36573209003229273,-0.24964022834313707,-12.125,5.3125,34.3125,0.02001953125,0.95458984375,-0.37939453125
1969/12/31/18:00:05.692,111,1730348740,648729157,RL_myo,0.5258202667521357,0.725833385051236,-0.3686540233526291,-0.24652211925848821,-12.9375,7.875,34.3125,0.0009765625,0.9677734375,-0.34912109375
1969/12/31/18:00:05.710,112,1730348740,666701578,RL_myo,0.5279748936463128,0.7237833859951418,-0.37153562747111046,-0.2436009017968132,-6.875,6.5,32.0,-0.01611328125,0.9560546875,-0.3583984375
1969/12/31/18:00:05.732,113,1730348740,689212243,RL_myo,0.5304674800579785,0.7215114580330645,-0.37458047694348334,-0.2402393282140379,-6.75,6.75,31.5,0.044921875,0.95458984375,-0.3369140625
1969/12/31/18:00:05.752,114,1730348740,708829534,RL_myo,0.5339448977147918,0.7188846599548261,-0.3768986903736671,-0.23675951740234083,-9.375,11.25,30.875,0.05810546875,0.9765625,-0.296875
1969/12/31/18:00:05.770,115,1730348740,726593653,RL_myo,0.5368903348697739,0.7167083119646299,-0.37867981327104105,-0.23383661583516416,-9.375,11.25,28.25,0.01611328125,0.9052734375,-0.28662109375
1969/12/31/18:00:05.792,116,1730348740,749160647,RL_myo,0.5388249874526694,0.7150966870180647,-0.381108203631,-0.23034951321322775,-2.1875,9.8125,30.0,0.029296875,0.8642578125,-0.2880859375
1969/12/31/18:00:05.812,117,1730348740,768737416,RL_myo,0.5403546474903652,0.7136367941327629,-0.3842237101493109,-0.22607857385115926,2.25,9.625,32.9375,0.0546875,0.8564453125,-0.29248046875
1969/12/31/18:00:05.830,118,1730348740,786707965,RL_myo,0.542305424119248,0.712962257640623,-0.38678553434368873,-0.21905843186989093,29.4375,20.6875,31.9375,0.205078125,1.25439453125,-0.111328125
1969/12/31/18:00:05.853,119,1730348740,809800043,RL_myo,0.5456289324250616,0.7155619168608341,-0.3813115494864481,-0.21180583907763326,31.6875,46.5625,-23.6875,0.5322265625,1.73046875,-0.15771484375
1969/12/31/18:00:05.872,120,1730348740,828826446,RL_myo,0.5383306025472325,0.724121799163307,-0.37603796397885486,-0.2108156350564786,27.625,28.375,-15.25,-0.35791015625,0.97900390625,-0.724609375
1969/12/31/18:00:05.890,121,1730348740,846734487,RL_myo,0.5321128049212593,0.7253531284336139,-0.381170505475254,-0.21313809529537023,27.375,-30.875,21.0,-0.13232421875,1.22265625,-0.49560546875
1969/12/31/18:00:05.912,122,1730348740,869046131,RL_myo,0.5324289772290097,0.7228655711708315,-0.38282638371894406,-0.21778133563603197,-21.875,-26.4375,-1.75,0.11767578125,1.12939453125,-0.47900390625
1969/12/31/18:00:05.932,123,1730348740,888765772,RL_myo,0.5380866190402446,0.717408135231288,-0.3815922801995927,-0.22399930715491126,-63.4375,-13.1875,1.875,-0.0185546875,0.9189453125,-0.43603515625
1969/12/31/18:00:05.950,124,1730348740,906552150,RL_myo,0.5418922456843194,0.712492473966328,-0.382950208315321,-0.2281587310619493,-47.625,-17.625,10.25,0.0390625,0.76171875,-0.388671875
1969/12/31/18:00:05.973,125,1730348740,929759431,RL_myo,0.5433481199625947,0.7105274617484346,-0.3837373208497903,-0.2294977455694626,-16.0625,-7.1875,4.9375,0.0849609375,0.81005859375,-0.291015625
1969/12/31/18:00:05.992,126,1730348740,948798358,RL_myo,0.5426806917409791,0.7108378513120506,-0.38392324272306355,-0.22980461190021215,3.1875,-1.5,3.0,0.02099609375,0.9990234375,-0.3232421875
1969/12/31/18:00:06.010,127,1730348740,966731361,RL_myo,0.5407821939386773,0.7118060886809091,-0.3844070267974932,-0.2304733142564837,11.5,-6.0,-0.5625,0.0322265625,1.0478515625,-0.31787109375
1969/12/31/18:00:06.032,128,1730348740,988388767,RL_myo,0.5410247410666943,0.711437768713153,-0.3843448549748391,-0.2311440314101502,-4.625,-2.125,-0.75,0.0947265625,1.0888671875,-0.3671875
1969/12/31/18:00:06.053,129,1730348741,9457501,RL_myo,0.5418255458295683,0.710837029033587,-0.38410590964351393,-0.2315133823737245,-13.0625,-0.25,-2.375,0.12890625,0.9892578125,-0.419921875
1969/12/31/18:00:06.069,130,1730348741,25924339,RL_myo,0.5433535135971477,0.7097410307916909,-0.3838632045621727,-0.2316973643692173,-18.9375,1.6875,0.125,0.14208984375,1.04638671875,-0.4609375
1969/12/31/18:00:06.091,131,1730348741,48277501,RL_myo,0.5454813051433264,0.7088754479058513,-0.3821481986687218,-0.2321820392486532,-24.625,7.0625,-6.0625,0.12939453125,1.06982421875,-0.48193359375
1969/12/31/18:00:06.113,132,1730348741,69460293,RL_myo,0.5486070083899209,0.7073050749023592,-0.3802039447330683,-0.23279785603016895,-36.75,8.5625,-5.9375,0.1435546875,0.96337890625,-0.51953125
