time,.header.seq,.header.stamp.secs,.header.stamp.nsecs,.header.frame_id,.orientation.x,.orientation.y,.orientation.z,.orientation.w,.angular_velocity.x,.angular_velocity.y,.angular_velocity.z,.linear_acceleration.x,.linear_acceleration.y,.linear_acceleration.z
1969/12/31/18:00:29.481,1,1731186811,666200234,RL_myo,0.2644599800396548,0.48351072279578705,-0.6303583369142752,-0.5467418650346706,34.1875,-56.625,94.125,0.21923828125,0.7001953125,-0.39306640625
1969/12/31/18:00:29.497,2,1731186811,682639754,RL_myo,0.2648334046542313,0.47192714560647986,-0.6452071722977365,-0.5393104317872291,40.6875,-46.125,73.75,0.177734375,0.82080078125,-0.45654296875
1969/12/31/18:00:29.520,3,1731186811,705209748,RL_myo,0.26421902892428983,0.4631309751622803,-0.6589301539077462,-0.5305742708336456,52.0,-32.8125,65.125,0.103515625,0.87158203125,-0.439453125
1969/12/31/18:00:29.542,4,1731186811,727461723,RL_myo,0.2637245638795938,0.4563454209969273,-0.6717316709231218,-0.5205523733693718,56.4375,-22.125,57.5,0.11962890625,0.91064453125,-0.48486328125
1969/12/31/18:00:29.557,5,1731186811,742610216,RL_myo,0.2645209622284216,0.45122369029873577,-0.6802229174055742,-0.5135393115343653,36.8125,-13.5,37.4375,0.15283203125,0.9892578125,-0.43798828125
1969/12/31/18:00:29.581,6,1731186811,766395812,RL_myo,0.2670302166874271,0.4475121254290778,-0.685062206194213,-0.509035887353861,12.5625,-1.625,30.625,0.056640625,1.07958984375,-0.49658203125
1969/12/31/18:00:29.593,7,1731186811,778601884,RL_myo,0.269222818717413,0.44439159897562547,-0.6912147862105422,-0.5022522274372232,23.0625,5.1875,40.9375,-0.02099609375,0.9501953125,-0.52587890625
1969/12/31/18:00:29.609,8,1731186811,794274385,RL_myo,0.27197072566159675,0.440609665294225,-0.6978099879912557,-0.4949305687589515,26.5,7.0625,49.0,-0.01708984375,0.826171875,-0.453125
1969/12/31/18:00:29.639,9,1731186811,824950198,RL_myo,0.27398399018587194,0.43731238353347573,-0.702995678093311,-0.489374834776191,21.75,4.1875,39.6875,-0.03173828125,0.93115234375,-0.44677734375
1969/12/31/18:00:29.653,10,1731186811,838718790,RL_myo,0.27342792025006574,0.4358367809164552,-0.7079219747724358,-0.4838697660139556,34.4375,1.125,29.625,-0.1015625,1.021484375,-0.43115234375
1969/12/31/18:00:29.669,11,1731186811,854459019,RL_myo,0.27356116570999367,0.43353524320349957,-0.7119182143778149,-0.4799832679927243,20.625,-1.1875,28.625,-0.0732421875,0.98095703125,-0.44970703125
1969/12/31/18:00:29.691,12,1731186811,876888160,RL_myo,0.2762410436119565,0.42986426649558324,-0.7145890717208986,-0.4777761576213866,2.625,1.375,31.25,0.00244140625,0.90185546875,-0.40234375
1969/12/31/18:00:29.705,13,1731186811,890325029,RL_myo,0.2795279379589351,0.42618855693607943,-0.7160919860419619,-0.47690639895439274,-6.5,3.8125,30.3125,-0.025390625,0.90478515625,-0.38671875
1969/12/31/18:00:29.728,14,1731186811,913633681,RL_myo,0.2817950764233206,0.4230893371813858,-0.7171522954243051,-0.4767384323029147,-0.25,0.5,23.9375,-0.0322265625,0.97607421875,-0.30322265625
1969/12/31/18:00:29.742,15,1731186811,928065787,RL_myo,0.28264216612508536,0.42204072095766904,-0.7185372968669035,-0.4750780870476494,6.9375,2.6875,13.3125,-0.00732421875,0.97314453125,-0.4130859375
1969/12/31/18:00:29.765,16,1731186811,950417850,RL_myo,0.2806393426397331,0.42285110174164225,-0.7191154273556624,-0.4746698929337113,20.5625,-5.0625,-4.3125,-0.0302734375,1.2177734375,-0.34716796875
1969/12/31/18:00:29.788,17,1731186811,973644149,RL_myo,0.27758557583123195,0.42309217494769125,-0.7193543528467238,-0.4758871448452321,8.875,-12.875,-5.25,-0.09375,1.2275390625,-0.43798828125
1969/12/31/18:00:29.802,18,1731186811,987993859,RL_myo,0.27752444141822935,0.4184533913268926,-0.7192930596247709,-0.4800983629196816,-28.125,-19.625,20.25,-0.12744140625,1.15234375,-0.53515625
1969/12/31/18:00:29.825,19,1731186812,10464546,RL_myo,0.2770334032814474,0.41417683953908396,-0.7198351968057701,-0.483267346812624,-17.3125,-22.125,12.8125,-0.00439453125,1.02587890625,-0.41650390625
1969/12/31/18:00:29.848,20,1731186812,33775059,RL_myo,0.27551232582192575,0.4117426118729976,-0.7208242286125262,-0.4847405608501848,-9.3125,-17.3125,7.6875,-0.033203125,0.8662109375,-0.443359375
1969/12/31/18:00:29.862,21,1731186812,47926810,RL_myo,0.2720287430872348,0.4092332785281376,-0.7249623985618521,-0.4826572358837453,15.9375,-22.8125,14.75,-0.01806640625,0.744140625,-0.439453125
1969/12/31/18:00:29.885,22,1731186812,70387073,RL_myo,0.26836590156363455,0.4076451800189937,-0.7306363901792744,-0.47746792083973466,36.375,-15.9375,18.625,-0.0078125,0.76953125,-0.44287109375
1969/12/31/18:00:29.917,23,1731186812,102497290,RL_myo,0.26263123362871504,0.40819839426187454,-0.7374792460924386,-0.46959904985808354,61.3125,-12.8125,13.75,-0.05419921875,0.810546875,-0.45263671875
1969/12/31/18:00:29.922,24,1731186812,107933197,RL_myo,0.25647481434767233,0.4096760956453062,-0.7442164234510159,-0.46100768033507117,67.125,-10.4375,9.75,-0.05908203125,0.96484375,-0.537109375
1969/12/31/18:00:29.945,25,1731186812,130490256,RL_myo,0.24883798813860952,0.4102744557929196,-0.7508474196912374,-0.45385314687238176,67.125,-21.0625,8.5625,-0.08056640625,1.10791015625,-0.57470703125
1969/12/31/18:00:29.969,26,1731186812,154212237,RL_myo,0.24260628144892746,0.4099588408786027,-0.7563823008796372,-0.44828758169619426,55.1875,-20.9375,8.9375,-0.04541015625,0.9970703125,-0.50146484375
1969/12/31/18:00:29.982,27,1731186812,167878555,RL_myo,0.24077588887691204,0.4067251010077926,-0.7596799718253293,-0.4466407996961324,18.0,-16.4375,20.5625,-0.01611328125,1.01708984375,-0.5224609375
1969/12/31/18:00:30.005,28,1731186812,190635222,RL_myo,0.24035188607798438,0.4031905940658113,-0.7621925732203831,-0.4457923250161498,6.875,-12.375,21.375,0.005859375,0.95703125,-0.52392578125
1969/12/31/18:00:30.028,29,1731186812,213615266,RL_myo,0.24211992476931296,0.39903707288675777,-0.764139515531081,-0.44523943816287825,-6.3125,-5.5625,25.375,0.05224609375,0.87841796875,-0.5517578125
1969/12/31/18:00:30.042,30,1731186812,227983493,RL_myo,0.2443217290145102,0.3965421617305203,-0.7656187281433965,-0.44372195102060685,-4.0625,3.375,19.5625,0.060546875,0.86376953125,-0.5771484375
1969/12/31/18:00:30.065,31,1731186812,250674409,RL_myo,0.24450369581178366,0.39641824870133174,-0.7671410266246402,-0.44109540929399915,8.6875,7.9375,14.5625,-0.07080078125,0.9189453125,-0.61767578125
1969/12/31/18:00:30.088,32,1731186812,273596019,RL_myo,0.242549482731478,0.39800331577553294,-0.7679919831933033,-0.43926236215864295,6.25,5.125,4.1875,-0.1689453125,0.89404296875,-0.68310546875
1969/12/31/18:00:30.103,33,1731186812,288261750,RL_myo,0.2395601160093725,0.3990430671259305,-0.7679351285681336,-0.4400582003637135,-1.375,-4.6875,-0.625,-0.1875,1.095703125,-0.728515625
1969/12/31/18:00:30.125,34,1731186812,310493242,RL_myo,0.23547306745421223,0.3997793135886703,-0.765073846692211,-0.4465321310251469,-25.1875,-19.875,-16.8125,-0.19287109375,1.27490234375,-0.71337890625
1969/12/31/18:00:30.148,35,1731186812,333672633,RL_myo,0.22979166768523546,0.40013656662533964,-0.7599298949133776,-0.4578133597096816,-36.4375,-39.4375,-36.6875,-0.12744140625,1.38818359375,-0.54931640625
1969/12/31/18:00:30.162,36,1731186812,348137846,RL_myo,0.22368779838228486,0.4009901324342733,-0.75260415875906,-0.47197209956076636,-52.5,-48.125,-57.5625,-0.02734375,1.41748046875,-0.5126953125
1969/12/31/18:00:30.196,37,1731186812,381490841,RL_myo,0.21672936717647553,0.4031862009484082,-0.7447287350851464,-0.4856422344757015,-51.5625,-47.4375,-69.5625,-0.01025390625,1.2548828125,-0.45166015625
1969/12/31/18:00:30.208,38,1731186812,393558456,RL_myo,0.20983502870245246,0.40648670481626914,-0.7368029280093095,-0.4978546623402864,-40.3125,-41.25,-75.1875,0.0009765625,1.2509765625,-0.359375
1969/12/31/18:00:30.222,39,1731186812,407859407,RL_myo,0.20141656674694522,0.4129039618312377,-0.7287007243611451,-0.5078749248185852,-24.6875,-32.4375,-88.8125,-0.04248046875,1.1005859375,-0.2822265625
1969/12/31/18:00:30.245,40,1731186812,430367437,RL_myo,0.19201504648096607,0.4211391674248779,-0.7213076348735082,-0.5152546161450462,-8.9375,-24.5625,-92.625,-0.103515625,1.00927734375,-0.2578125
1969/12/31/18:00:30.268,41,1731186812,453609502,RL_myo,0.1823068771074171,0.42991953208726014,-0.7149456841099042,-0.5203710861124333,1.0,-20.6875,-92.0625,-0.09326171875,0.935546875,-0.2783203125
1969/12/31/18:00:30.283,42,1731186812,468055617,RL_myo,0.1743766794227136,0.43804740224599775,-0.7091033467039155,-0.524289701169447,2.5625,-13.375,-82.875,-0.07275390625,0.79541015625,-0.22021484375
1969/12/31/18:00:30.322,43,1731186812,507388833,RL_myo,0.16827546946795374,0.4458048708719384,-0.7036807716706706,-0.5270434090880597,1.25,-3.6875,-70.9375,-0.10205078125,0.68212890625,-0.20751953125
1969/12/31/18:00:30.324,44,1731186812,509896649,RL_myo,0.1638184542722144,0.4537356144037413,-0.6983646623631434,-0.5287478648882985,0.5,6.5625,-63.6875,-0.1357421875,0.6494140625,-0.21337890625
1969/12/31/18:00:30.343,45,1731186812,527955582,RL_myo,0.16028060808603734,0.46253101602284497,-0.6938575600617183,-0.5281447455325518,5.375,17.5625,-58.3125,-0.14404296875,0.544921875,-0.2509765625
1969/12/31/18:00:30.382,46,1731186812,567535288,RL_myo,0.1585074865025936,0.47149415988930904,-0.6895716528711214,-0.5263644834803108,8.875,29.625,-49.8125,-0.19189453125,0.55712890625,-0.22216796875
1969/12/31/18:00:30.385,47,1731186812,569981556,RL_myo,0.15795922651988095,0.47998120454109106,-0.6855479259162685,-0.524109690156962,5.3125,35.5,-38.625,-0.27734375,0.57373046875,-0.2724609375
1969/12/31/18:00:30.403,48,1731186812,588021067,RL_myo,0.15881216612645735,0.48681238932537424,-0.6826725895943218,-0.5212969680576757,3.5625,36.75,-22.3125,-0.29541015625,0.50634765625,-0.28759765625
1969/12/31/18:00:30.425,49,1731186812,610317684,RL_myo,0.16174055904270834,0.4919964703559517,-0.680592065617072,-0.518241164842127,1.75,40.0,-8.6875,-0.26806640625,0.51416015625,-0.24853515625
1969/12/31/18:00:30.440,50,1731186812,625478789,RL_myo,0.16534280959147984,0.4957842902589852,-0.6788271422209077,-0.5158036485262445,-1.9375,37.3125,0.4375,-0.31982421875,0.6015625,-0.28515625
1969/12/31/18:00:30.479,51,1731186812,664519423,RL_myo,0.1693664553132431,0.49833409284058733,-0.678198216735408,-0.512859936575561,-3.0,33.8125,9.0,-0.30419921875,0.63037109375,-0.361328125
1969/12/31/18:00:30.485,52,1731186812,670460695,RL_myo,0.1746212086362146,0.5001820359223274,-0.6785263811285557,-0.5088490095771133,-0.25,36.625,14.625,-0.2314453125,0.65380859375,-0.37939453125
1969/12/31/18:00:30.503,53,1731186812,688288228,RL_myo,0.18036004943427292,0.5018953253800427,-0.679264632877842,-0.5041536407198288,-0.125,39.75,19.9375,-0.263671875,0.69384765625,-0.4345703125
1969/12/31/18:00:30.523,54,1731186812,708026047,RL_myo,0.18603399022963774,0.5026823961716852,-0.6812091092365442,-0.49865410110765757,2.9375,36.875,26.9375,-0.25146484375,0.744140625,-0.51220703125
1969/12/31/18:00:30.545,55,1731186812,730581834,RL_myo,0.19128187770997102,0.5031677727635613,-0.6843179364659205,-0.4918764047430301,11.25,35.375,29.3125,-0.20703125,0.7763671875,-0.556640625
1969/12/31/18:00:30.563,56,1731186812,748501068,RL_myo,0.19640812344691522,0.5034712897183354,-0.6866960214112005,-0.48619860515168634,9.6875,32.9375,25.25,-0.20751953125,0.896484375,-0.54150390625
1969/12/31/18:00:30.583,57,1731186812,767981649,RL_myo,0.20202003580358377,0.5030970257187133,-0.6882718863314242,-0.48204055673012225,-0.375,29.4375,24.5625,-0.20263671875,0.9541015625,-0.57373046875
1969/12/31/18:00:30.605,58,1731186812,790368530,RL_myo,0.20824273103933133,0.5019308968544727,-0.6899108533612548,-0.4782503049308911,-5.625,27.6875,29.1875,-0.1708984375,0.900390625,-0.56494140625
1969/12/31/18:00:30.623,59,1731186812,808639197,RL_myo,0.2138608805660272,0.5005955885852041,-0.6919351606669665,-0.4742291786524062,-0.5625,26.0625,29.6875,-0.15966796875,0.9013671875,-0.5439453125
1969/12/31/18:00:30.643,60,1731186812,827965092,RL_myo,0.21783551543692992,0.5002465353099125,-0.6939730486180704,-0.4697898465447043,8.75,24.5,23.5,-0.18310546875,0.953125,-0.5498046875
1969/12/31/18:00:30.665,61,1731186812,850558649,RL_myo,0.2202118068244772,0.5001151732593586,-0.6959132542718095,-0.46593595712252184,13.3125,19.375,20.5,-0.23046875,0.984375,-0.5380859375
1969/12/31/18:00:30.683,62,1731186812,868434521,RL_myo,0.2220459455870846,0.49908457863265276,-0.697937159919822,-0.4631348639677839,8.0625,10.625,20.0,-0.205078125,1.0048828125,-0.57470703125
1969/12/31/18:00:30.703,63,1731186812,887936011,RL_myo,0.22442091354941462,0.4975467194057188,-0.7000565347869964,-0.46043823002904105,6.3125,8.75,19.4375,-0.1240234375,0.966796875,-0.55224609375
1969/12/31/18:00:30.726,64,1731186812,910756549,RL_myo,0.2272338092629239,0.49621565117044625,-0.7019650927566177,-0.45758041043355907,4.125,12.8125,20.9375,-0.123046875,0.88916015625,-0.5302734375
1969/12/31/18:00:30.751,65,1731186812,936006627,RL_myo,0.2288176711710745,0.49578179325757216,-0.7042140010594444,-0.4537901800898743,12.8125,13.8125,20.0,-0.1689453125,0.845703125,-0.52734375
1969/12/31/18:00:30.763,66,1731186812,948063879,RL_myo,0.2291187843712625,0.4956509450929736,-0.7065207905918313,-0.4501811810129015,16.5,10.3125,16.6875,-0.19140625,0.85791015625,-0.53369140625
1969/12/31/18:00:30.785,67,1731186812,970495128,RL_myo,0.2298561164606003,0.49517330665025233,-0.7091604400307262,-0.446162562752785,21.0,9.9375,17.1875,-0.1318359375,0.8916015625,-0.5029296875
1969/12/31/18:00:30.803,68,1731186812,988452626,RL_myo,0.23205364554038005,0.4944414998744394,-0.7116637314573465,-0.4418296528318809,14.5625,15.375,20.5,-0.08740234375,0.8251953125,-0.52001953125
1969/12/31/18:00:30.823,69,1731186813,8094782,RL_myo,0.23425067956568188,0.4945020859408949,-0.715142056402057,-0.4349323456448799,29.375,22.0625,21.5625,-0.056640625,0.95458984375,-0.59619140625
1969/12/31/18:00:30.845,70,1731186813,30503616,RL_myo,0.23626792336299307,0.4978044905576263,-0.7119165740392537,-0.435365305437414,11.125,15.5,-29.4375,0.00439453125,1.52734375,-0.546875
1969/12/31/18:00:30.863,71,1731186813,48526913,RL_myo,0.23022665919424973,0.5041548793596242,-0.7126528294676723,-0.43005753994768914,34.125,13.3125,-15.5625,-0.3779296875,0.88916015625,-0.80615234375
1969/12/31/18:00:30.884,72,1731186813,69445789,RL_myo,0.22759944903354937,0.5017075545872287,-0.7166117273003226,-0.4277331560276519,22.6875,-14.375,19.75,-0.1455078125,0.9482421875,-0.60986328125
1969/12/31/18:00:30.905,73,1731186813,90552259,RL_myo,0.2252697827937029,0.5020507269739909,-0.7175553606896682,-0.4269811434366691,10.3125,-8.3125,-3.75,-0.09765625,0.81005859375,-0.55224609375
1969/12/31/18:00:30.927,74,1731186813,112985215,RL_myo,0.22436298896315054,0.5012156869873211,-0.7183765995909364,-0.42705871430227543,0.3125,-6.6875,4.625,-0.10693359375,0.71337890625,-0.50439453125
1969/12/31/18:00:30.944,75,1731186813,129579341,RL_myo,0.22576917122978118,0.4998782136717783,-0.71929972504541,-0.42633080860773764,-0.8125,1.75,9.625,-0.0556640625,0.80712890625,-0.517578125
1969/12/31/18:00:30.965,76,1731186813,150454202,RL_myo,0.22509427737227408,0.5011521452016655,-0.7201429985670992,-0.4237607287949292,12.75,8.0625,2.125,-0.1494140625,0.80615234375,-0.5791015625
1969/12/31/18:00:30.983,77,1731186813,168567924,RL_myo,0.22423932312586348,0.5013341862155261,-0.721179053362875,-0.4222339786022655,12.75,1.3125,3.9375,-0.14453125,0.931640625,-0.58203125
1969/12/31/18:00:31.004,78,1731186813,189733923,RL_myo,0.22558619213348177,0.5004278109584461,-0.7207039385043703,-0.4234013568262887,-8.5625,-3.75,-3.1875,0.00732421875,0.9736328125,-0.58984375
1969/12/31/18:00:31.044,79,1731186813,229825305,RL_myo,0.2287569870888191,0.49895634190264043,-0.7191074764889186,-0.42614228491305634,-31.5,0.75,1.875,-0.0478515625,0.953125,-0.693359375
1969/12/31/18:00:31.049,80,1731186813,234479549,RL_myo,0.23150744769145207,0.49792717064773684,-0.7174106354245525,-0.4287129745807433,-33.8125,-0.75,-2.625,-0.00537109375,0.85546875,-0.6923828125
1969/12/31/18:00:31.064,81,1731186813,249461744,RL_myo,0.23711464408887414,0.4960792347887694,-0.7134801002313871,-0.4343134639218606,-59.25,1.8125,-5.3125,0.02685546875,0.96337890625,-0.71240234375
1969/12/31/18:00:31.085,82,1731186813,270628921,RL_myo,0.24414286920912034,0.49536588162530515,-0.7078312135545421,-0.4404337360532531,-73.1875,10.625,-12.5,0.0537109375,0.88818359375,-0.71923828125
1969/12/31/18:00:31.110,83,1731186813,295673258,RL_myo,0.25303768036469626,0.4950896437815765,-0.7004004871840942,-0.4475459021018615,-87.875,17.875,-18.875,0.0986328125,0.83642578125,-0.68603515625
1969/12/31/18:00:31.124,84,1731186813,309422723,RL_myo,0.26385945146859907,0.49744495245641507,-0.6880609753424746,-0.4577103924503873,-102.9375,35.875,-36.125,0.22802734375,0.8486328125,-0.62158203125
1969/12/31/18:00:31.145,85,1731186813,330469961,RL_myo,0.2777657835483341,0.5041409299295186,-0.6709468816846488,-0.46745948938622073,-115.4375,66.8125,-60.5625,0.3525390625,0.81396484375,-0.5146484375
1969/12/31/18:00:31.163,86,1731186813,348505899,RL_myo,0.29315594701625425,0.5161815206988262,-0.648995874375147,-0.47583671932931876,-118.75,98.4375,-89.9375,0.43408203125,0.744140625,-0.4560546875
1969/12/31/18:00:31.185,87,1731186813,370816508,RL_myo,0.30717591465862876,0.5342163284337329,-0.6229573933877655,-0.4818505555791524,-106.375,123.25,-125.4375,0.48095703125,0.72314453125,-0.3486328125
1969/12/31/18:00:31.205,88,1731186813,390533373,RL_myo,0.3182953345935153,0.5570015768936568,-0.5931340482415689,-0.48644560243726115,-93.125,137.9375,-159.25,0.46533203125,0.66943359375,-0.2373046875
1969/12/31/18:00:31.223,89,1731186813,408439999,RL_myo,0.3268420520537428,0.5823342705218973,-0.5609720448974697,-0.4892560017297483,-80.75,146.5625,-178.0625,0.35107421875,0.60546875,-0.19580078125
1969/12/31/18:00:31.246,90,1731186813,431071546,RL_myo,0.3330722164200272,0.6085266625815781,-0.5277152983631218,-0.49017829761210163,-68.0,151.1875,-185.1875,0.19140625,0.55322265625,-0.17041015625
1969/12/31/18:00:31.265,91,1731186813,450426745,RL_myo,0.3394855844346285,0.6330106070067479,-0.49390818936443975,-0.49000184678914016,-69.375,152.625,-176.4375,0.03125,0.50341796875,-0.109375
1969/12/31/18:00:31.283,92,1731186813,468404640,RL_myo,0.3479570717346245,0.6535562750630344,-0.4605044915344223,-0.4896178967646303,-83.125,148.1875,-155.1875,-0.1474609375,0.43505859375,-0.08935546875
1969/12/31/18:00:31.306,93,1731186813,491023165,RL_myo,0.3581623865778522,0.6688993855669193,-0.42994135157709457,-0.48932989999908677,-92.1875,132.8125,-124.25,-0.2646484375,0.3994140625,-0.0947265625
1969/12/31/18:00:31.325,94,1731186813,510486616,RL_myo,0.36981345137882576,0.6789577212639144,-0.4031387764246813,-0.4896259295198779,-98.4375,111.625,-93.4375,-0.27392578125,0.36474609375,-0.02734375
1969/12/31/18:00:31.343,95,1731186813,528467016,RL_myo,0.3855595201094465,0.6837165971609972,-0.37768597600716397,-0.4911504603958708,-124.75,99.0,-66.5625,-0.34326171875,0.40673828125,0.0009765625
1969/12/31/18:00:31.365,96,1731186813,550913755,RL_myo,0.40338724292709555,0.6843361730516864,-0.35663362996262965,-0.49170640475422633,-126.4375,87.0,-29.5625,-0.5625,0.47998046875,0.0517578125
1969/12/31/18:00:31.385,97,1731186813,570559991,RL_myo,0.4250598579378987,0.6776909251413683,-0.3446134345085261,-0.49122368418785306,-132.375,57.1875,35.6875,-0.72412109375,0.64404296875,-0.04296875
1969/12/31/18:00:31.403,98,1731186813,588602627,RL_myo,0.45709944730750285,0.6585186189078179,-0.335149294320403,-0.49506390934853195,-205.625,17.875,87.1875,-0.6474609375,0.92529296875,-0.099609375
1969/12/31/18:00:31.425,99,1731186813,610321516,RL_myo,0.508353806788148,0.6224877506822333,-0.3245188126656961,-0.49877143823661246,-330.375,9.0,174.5625,-0.91650390625,1.162109375,-0.26806640625
1969/12/31/18:00:31.445,100,1731186813,630383160,RL_myo,0.5502415442094576,0.5806986191468418,-0.31696110250468257,-0.5094693477000934,-315.875,-58.875,145.9375,-0.66064453125,1.0673828125,-0.02685546875
1969/12/31/18:00:31.463,101,1731186813,648633396,RL_myo,0.5922435289456113,0.529436294967972,-0.31049601481462685,-0.5220507990386285,-347.8125,-97.375,161.0,-0.52294921875,0.72998046875,-0.04296875
1969/12/31/18:00:31.486,102,1731186813,671067083,RL_myo,0.6226914101945187,0.4779745572665434,-0.31134570509725934,-0.5355927391155559,-290.9375,-145.5625,144.375,-0.38720703125,0.8037109375,0.19970703125
1969/12/31/18:00:31.506,103,1731186813,691196001,RL_myo,0.6324512356391621,0.43371921255084783,-0.337466018321649,-0.5459027071565977,-127.1875,-243.1875,149.625,-0.4453125,1.0380859375,0.18896484375
1969/12/31/18:00:31.522,104,1731186813,707649343,RL_myo,0.6328284437681725,0.39081795191431407,-0.3708589529644499,-0.556105319364566,-75.875,-284.3125,139.0,-0.51123046875,1.162109375,0.31494140625
1969/12/31/18:00:31.545,105,1731186813,730315321,RL_myo,0.6367193975466636,0.34527623005382246,-0.3975834121567261,-0.5632940299039646,-110.125,-254.625,154.0,-0.50927734375,1.50732421875,0.38720703125
1969/12/31/18:00:31.566,106,1731186813,751256931,RL_myo,0.6332891883157648,0.30089781210454125,-0.42894722585612904,-0.5695696516348031,-74.5,-282.75,139.875,-0.43017578125,1.33740234375,0.314453125
1969/12/31/18:00:31.582,107,1731186813,767876397,RL_myo,0.6246774235353671,0.25762221834321297,-0.4606805269022913,-0.5754844578910578,-55.875,-290.1875,116.9375,-0.0068359375,1.033203125,0.37353515625
