time,.header.seq,.header.stamp.secs,.header.stamp.nsecs,.header.frame_id,.orientation.x,.orientation.y,.orientation.z,.orientation.w,.angular_velocity.x,.angular_velocity.y,.angular_velocity.z,.linear_acceleration.x,.linear_acceleration.y,.linear_acceleration.z
1969/12/31/18:00:05.925,1,1731186289,28349372,RU_myo,0.6750972459791866,0.3170106767576074,-0.4688633074416519,-0.4731967225455776,-227.8125,165.8125,-96.125,0.46728515625,0.580078125,0.43994140625
1969/12/31/18:00:05.941,2,1731186289,42403998,RU_myo,0.6969666624391726,0.3089627152348797,-0.4224280822087322,-0.4902387453114488,-240.625,187.0625,-73.5625,0.455078125,0.54931640625,0.451171875
1969/12/31/18:00:05.969,3,1731186289,64975116,RU_myo,0.7192966488805181,0.3001087503220626,-0.3758530983289123,-0.5012798792749847,-230.0625,197.6875,-47.0,0.45068359375,0.47021484375,0.51611328125
1969/12/31/18:00:05.997,4,1731186289,88108688,RU_myo,0.7414737135740795,0.2932812968162209,-0.3323447785981942,-0.5037358049166017,-192.375,205.1875,-10.9375,0.40234375,0.400390625,0.65478515625
1969/12/31/18:00:06.014,5,1731186289,102239572,RU_myo,0.76125400985496,0.2914518839847205,-0.29505306956694,-0.4984895364404633,-134.625,201.5,16.875,0.322265625,0.33837890625,0.6416015625
1969/12/31/18:00:06.051,6,1731186289,133630203,RU_myo,0.7772911875188733,0.2966951285849425,-0.2675200058810539,-0.4860282470524372,-58.4375,185.5625,41.875,0.3203125,0.35009765625,0.578125
1969/12/31/18:00:06.069,7,1731186289,148111183,RU_myo,0.7890650191523167,0.3106699371507806,-0.2492073385828364,-0.4677138955572558,21.0,172.5625,58.75,0.30615234375,0.423828125,0.55224609375
1969/12/31/18:00:06.086,8,1731186289,162316835,RU_myo,0.7969701535201034,0.3316792382804811,-0.238169375739867,-0.4450874136071527,86.25,160.5625,70.375,0.31494140625,0.41748046875,0.59130859375
1969/12/31/18:00:06.114,9,1731186289,185046192,RU_myo,0.80052664045097,0.3586378880214927,-0.2326019386061792,-0.4200384522402848,137.875,149.1875,73.1875,0.2734375,0.5625,0.58203125
1969/12/31/18:00:06.141,10,1731186289,207500977,RU_myo,0.8017282798706429,0.387100171369594,-0.2303557311177622,-0.3928377015034227,156.6875,138.0,83.0,0.22900390625,0.79296875,0.421875
1969/12/31/18:00:06.159,11,1731186289,222455496,RU_myo,0.803783152048541,0.4096736666831048,-0.2258332191191132,-0.3675588231176486,116.75,132.1875,79.3125,0.21142578125,0.994140625,0.29052734375
1969/12/31/18:00:06.187,12,1731186289,245069101,RU_myo,0.808443367164409,0.4214037755306213,-0.2152797097764341,-0.3499897521570948,35.9375,121.875,49.3125,0.1630859375,1.12841796875,0.20947265625
1969/12/31/18:00:06.213,13,1731186289,267458555,RU_myo,0.816482011352877,0.4212722465693023,-0.1991002706909684,-0.3409485322132893,-49.3125,106.875,19.4375,0.0390625,0.99267578125,0.1279296875
1969/12/31/18:00:06.232,14,1731186289,282997521,RU_myo,0.8273920556794511,0.4124142903678114,-0.181701545423261,-0.3351438313467,-100.5,90.5625,16.375,0.02001953125,0.70263671875,0.14794921875
1969/12/31/18:00:06.259,15,1731186289,305014933,RU_myo,0.8352094434272922,0.4081442230486921,-0.172547288553709,-0.325685295975448,-53.375,68.3125,39.5,0.07470703125,0.5400390625,0.2861328125
1969/12/31/18:00:06.286,16,1731186289,327333346,RU_myo,0.8364873555017975,0.4147951892003076,-0.1732178850721708,-0.3134157293324867,32.375,42.75,51.8125,0.1064453125,0.7109375,0.35595703125
1969/12/31/18:00:06.304,17,1731186289,342316698,RU_myo,0.8363131977175576,0.4228563592021048,-0.1753559930698104,-0.301700199702079,43.0,35.25,49.0625,0.1025390625,0.7177734375,0.31005859375
1969/12/31/18:00:06.331,18,1731186289,364988820,RU_myo,0.8357261962345253,0.4309251347805834,-0.1780465464808727,-0.290111496545625,43.25,31.4375,49.375,0.10595703125,0.81787109375,0.341796875
1969/12/31/18:00:06.358,19,1731186289,387482487,RU_myo,0.8318662162144964,0.4433690068663953,-0.1837198114906181,-0.2786925778292898,77.0625,21.5625,44.875,0.1533203125,1.04248046875,0.44677734375
1969/12/31/18:00:06.376,20,1731186289,402295096,RU_myo,0.8266218197088315,0.4562503213707092,-0.188725885441904,-0.2700269460527114,76.0,16.8125,28.5,0.15478515625,1.1904296875,0.45166015625
1969/12/31/18:00:06.404,21,1731186289,425076588,RU_myo,0.825207101895817,0.4609440853193203,-0.1891506515366225,-0.2660560471275049,18.0625,15.375,12.125,0.0888671875,1.0654296875,0.41015625
1969/12/31/18:00:06.430,22,1731186289,447396186,RU_myo,0.8254215266054845,0.4613278043395882,-0.1881201763660506,-0.2654557582790248,-8.5625,6.9375,1.375,0.05029296875,0.95458984375,0.4150390625
1969/12/31/18:00:06.449,23,1731186289,462417098,RU_myo,0.8253203989594833,0.4610002198891419,-0.1892096758448748,-0.2655649353551776,-3.5625,-5.0,1.1875,0.08203125,0.80517578125,0.408203125
1969/12/31/18:00:06.476,24,1731186289,484966338,RU_myo,0.8245174816589181,0.4614832096249227,-0.1921982048814814,-0.2650736118768733,6.25,-10.1875,4.4375,0.134765625,0.80419921875,0.4111328125
1969/12/31/18:00:06.503,25,1731186289,507399220,RU_myo,0.8230829958525969,0.463148221915425,-0.1958064702035692,-0.2639847205830539,17.8125,-10.3125,5.4375,0.15625,0.794921875,0.44873046875
1969/12/31/18:00:06.521,26,1731186289,522445983,RU_myo,0.8202738730254456,0.4672368850368172,-0.2006890761595108,-0.261847973456296,42.375,-11.875,8.3125,0.16943359375,0.787109375,0.525390625
1969/12/31/18:00:06.552,27,1731186289,548025734,RU_myo,0.8167498094624175,0.472495349753275,-0.2075292842218234,-0.2580687687323145,53.5,-15.75,19.25,0.17822265625,0.81201171875,0.5146484375
1969/12/31/18:00:06.575,28,1731186289,567429551,RU_myo,0.8129361042792357,0.4783987675756925,-0.2150902343629421,-0.2529934794081712,52.3125,-13.4375,24.9375,0.22998046875,1.02978515625,0.47216796875
1969/12/31/18:00:06.603,29,1731186289,589937317,RU_myo,0.8088039942823283,0.4843912533865034,-0.2204663819596838,-0.2501915004575702,41.4375,-10.9375,11.1875,0.2060546875,1.21337890625,0.44580078125
1969/12/31/18:00:06.621,30,1731186289,604811192,RU_myo,0.8076296659928455,0.4849318089716715,-0.2225376180630225,-0.2511025125373765,3.375,-13.0,0.125,0.11572265625,1.02099609375,0.4296875
1969/12/31/18:00:06.643,31,1731186289,622932403,RU_myo,0.8082956383744401,0.4822429841271956,-0.2238178740405551,-0.2529929337055088,-18.125,-12.9375,-2.6875,0.1513671875,0.912109375,0.388671875
1969/12/31/18:00:06.670,32,1731186289,645489529,RU_myo,0.8091556438362739,0.4793165324768997,-0.2244297580437489,-0.2552529910630834,-14.4375,-12.25,-5.125,0.13232421875,0.8603515625,0.4853515625
1969/12/31/18:00:06.694,33,1731186289,664956318,RU_myo,0.810310102909634,0.4767499407824007,-0.2240620960968112,-0.2567162016298524,-8.4375,-6.3125,-1.125,0.0751953125,0.75,0.51904296875
1969/12/31/18:00:06.715,34,1731186289,682908132,RU_myo,0.8102435977899287,0.4768687931851385,-0.2246099013082439,-0.2562261863293499,8.375,-3.125,5.4375,0.06201171875,0.6962890625,0.4462890625
1969/12/31/18:00:06.738,35,1731186289,702433613,RU_myo,0.808116145442584,0.4806582058429267,-0.2256499539049269,-0.2549472159753529,31.25,-0.375,3.0625,0.06787109375,0.7900390625,0.4638671875
1969/12/31/18:00:06.766,36,1731186289,724960286,RU_myo,0.8053443535983493,0.4858068599582585,-0.2259651960755714,-0.2536767571285993,39.875,4.625,-2.75,0.08984375,0.86279296875,0.5087890625
1969/12/31/18:00:06.788,37,1731186289,742873054,RU_myo,0.8031219526071869,0.4902474177945679,-0.2255919392640342,-0.2525091592898565,31.0625,7.375,-3.5,0.10107421875,0.89892578125,0.47216796875
1969/12/31/18:00:06.811,38,1731186289,762351913,RU_myo,0.8020847561461444,0.4925670787686922,-0.2255920598672969,-0.2512885580285881,14.9375,5.6875,0.5,0.126953125,0.96826171875,0.43505859375
1969/12/31/18:00:06.839,39,1731186289,785067155,RU_myo,0.8026309133745567,0.4923209845839676,-0.2247976923162351,-0.2507382351439299,-6.375,6.875,-0.5625,0.15625,0.99072265625,0.4072265625
1969/12/31/18:00:06.860,40,1731186289,802876678,RU_myo,0.8042712258596677,0.4901800269316985,-0.2227203235305401,-0.251529310295795,-20.0,7.0,-5.1875,0.13037109375,0.9326171875,0.40869140625
1969/12/31/18:00:06.883,41,1731186289,822311793,RU_myo,0.8053472010765674,0.4886163668802427,-0.2211439221995152,-0.2525179150260542,-16.125,4.625,-7.25,0.13818359375,0.9169921875,0.39794921875
1969/12/31/18:00:06.920,42,1731186289,852375301,RU_myo,0.8050738038840007,0.4892700236492911,-0.2197930832286798,-0.2533022203274149,0.75,5.75,-11.125,0.14501953125,0.9375,0.4404296875
1969/12/31/18:00:06.933,43,1731186289,862850003,RU_myo,0.8037236445773849,0.4919511372489157,-0.2178989528509465,-0.2540323366290306,15.8125,8.8125,-14.8125,0.115234375,0.92041015625,0.48583984375
1969/12/31/18:00:06.956,44,1731186289,882398147,RU_myo,0.8017156978282224,0.4961664946818134,-0.2155812595911139,-0.2541563887138727,29.0,13.8125,-16.625,0.1083984375,0.8251953125,0.49267578125
1969/12/31/18:00:06.984,45,1731186289,904784347,RU_myo,0.7981393598081685,0.50338446775298,-0.2141840787371415,-0.2523941765682759,52.5625,17.5,-12.3125,0.1044921875,0.73779296875,0.4677734375
1969/12/31/18:00:07.005,46,1731186289,922986759,RU_myo,0.792546317915231,0.5139191372234305,-0.2138074510325032,-0.2490859856305011,73.25,19.8125,-8.75,0.10009765625,0.84423828125,0.4345703125
1969/12/31/18:00:07.031,47,1731186289,943940617,RU_myo,0.7864122997136009,0.5252311269043415,-0.2128391562481625,-0.2457385841855757,74.875,21.0625,-5.8125,0.01025390625,0.9169921875,0.3916015625
1969/12/31/18:00:07.056,48,1731186289,964985286,RU_myo,0.7802909410543777,0.5352903279917781,-0.2118577797559249,-0.2443902478083329,62.9375,12.0625,-10.1875,-0.0439453125,1.0126953125,0.34912109375
1969/12/31/18:00:07.078,49,1731186289,982943300,RU_myo,0.7743705957026187,0.5436524707120064,-0.2113695414927223,-0.2451837852082777,48.1875,2.5625,-17.5625,-0.02099609375,1.078125,0.27880859375
1969/12/31/18:00:07.103,50,1731186290,3945525,RU_myo,0.7715088554879075,0.5471365016292408,-0.209052043516304,-0.2484209684996664,12.0625,1.5,-27.625,0.02490234375,1.0859375,0.28369140625
1969/12/31/18:00:07.129,51,1731186290,24950165,RU_myo,0.7717294054120357,0.5460211373628655,-0.2045900796378633,-0.2538455075220386,-22.4375,2.0,-37.5625,0.0625,1.12841796875,0.3193359375
1969/12/31/18:00:07.150,52,1731186290,42863758,RU_myo,0.7740478140763143,0.5421752667118672,-0.1980590724394922,-0.260131823339635,-38.625,6.4375,-41.4375,0.04443359375,1.07080078125,0.419921875
1969/12/31/18:00:07.176,53,1731186290,63899101,RU_myo,0.7771305695170819,0.5377411496579871,-0.1899489736362833,-0.2661238833721707,-37.25,15.1875,-45.5625,0.0615234375,0.99462890625,0.5341796875
1969/12/31/18:00:07.201,54,1731186290,84924911,RU_myo,0.7801380045514061,0.534334409814804,-0.1798815976381342,-0.2711347325105505,-30.75,29.125,-49.5625,0.056640625,0.9228515625,0.5830078125
1969/12/31/18:00:07.223,55,1731186290,102979890,RU_myo,0.7830262210977761,0.5321697421273295,-0.1679090446831383,-0.2747214140744477,-27.375,43.5625,-48.3125,0.0048828125,0.86669921875,0.55859375
1969/12/31/18:00:07.249,56,1731186290,125514546,RU_myo,0.7858067571621471,0.5310329957519558,-0.1541216453188147,-0.2770527319216239,-25.75,55.8125,-47.0,-0.04833984375,0.82373046875,0.53125
1969/12/31/18:00:07.273,57,1731186290,144976068,RU_myo,0.7882481002249203,0.53072767782683,-0.1406931911892861,-0.2778461632510328,-20.375,60.75,-40.6875,-0.0625,0.83837890625,0.52490234375
1969/12/31/18:00:07.295,58,1731186290,163015134,RU_myo,0.791087388892354,0.5302195931878619,-0.1265886308589416,-0.2775306193421444,-26.0,66.5,-35.75,-0.10205078125,0.826171875,0.47998046875
1969/12/31/18:00:07.322,59,1731186290,185310730,RU_myo,0.7948847976042762,0.5288245324766528,-0.1117587394926998,-0.2757041104798062,-32.5,73.0625,-28.0625,-0.123046875,0.740234375,0.462890625
1969/12/31/18:00:07.346,60,1731186290,204791144,RU_myo,0.7983593586793406,0.5279670070776985,-0.0974755272026687,-0.272711744233891,-27.75,76.375,-23.625,-0.1044921875,0.70751953125,0.45263671875
1969/12/31/18:00:07.368,61,1731186290,222922625,RU_myo,0.8009919050519964,0.529193005928584,-0.0847807480086278,-0.2667938441653795,-12.25,80.25,-7.9375,-0.11376953125,0.67626953125,0.42724609375
1969/12/31/18:00:07.394,62,1731186290,245462949,RU_myo,0.8026385189846463,0.5321829085191735,-0.0736108025776033,-0.2591027006151957,1.6875,81.125,2.5625,-0.1279296875,0.7158203125,0.4423828125
1969/12/31/18:00:07.418,63,1731186290,264970644,RU_myo,0.803126600753124,0.5370657364361406,-0.0628682473609756,-0.2501912096433391,15.0625,84.5,7.9375,-0.14501953125,0.66650390625,0.40966796875
1969/12/31/18:00:07.439,64,1731186290,282182833,RU_myo,0.8023417970627057,0.543968816692494,-0.0537742961743814,-0.2396954155241723,26.4375,83.5,17.875,-0.15283203125,0.693359375,0.3310546875
1969/12/31/18:00:07.467,65,1731186290,305416260,RU_myo,0.8012879759646545,0.5515874039299652,-0.0458994940528199,-0.227117044375722,31.4375,85.8125,28.4375,-0.13623046875,0.78125,0.333984375
1969/12/31/18:00:07.491,66,1731186290,325194047,RU_myo,0.7997163704701781,0.5592887423766022,-0.038575846904072,-0.2148528181998951,31.5,81.375,29.3125,-0.18017578125,0.8935546875,0.32763671875
1969/12/31/18:00:07.513,67,1731186290,342938468,RU_myo,0.7984327070395408,0.5656353410393261,-0.0324109599753838,-0.2037434734422435,21.5625,70.1875,27.6875,-0.17626953125,0.92626953125,0.26318359375
1969/12/31/18:00:07.539,68,1731186290,365460713,RU_myo,0.7996456966903815,0.5678271823762018,-0.0264900566646535,-0.1934872802464323,-7.0625,61.9375,27.75,-0.14501953125,0.857421875,0.2041015625
1969/12/31/18:00:07.563,69,1731186290,385077477,RU_myo,0.8013105716551023,0.568998868751437,-0.0228283176263717,-0.1833590004000554,-7.5625,51.1875,33.75,-0.12353515625,0.8583984375,0.2509765625
1969/12/31/18:00:07.585,70,1731186290,402960427,RU_myo,0.8032973329051759,0.5694066422515299,-0.0205081607671255,-0.1734038236291774,-16.375,43.9375,35.25,-0.08935546875,0.93115234375,0.18896484375
1969/12/31/18:00:07.610,71,1731186290,424605077,RU_myo,0.8054073892626206,0.5692481479547706,-0.0188609991119476,-0.1640723806243216,-18.1875,37.3125,36.9375,-0.11474609375,0.9111328125,0.19140625
1969/12/31/18:00:07.636,72,1731186290,445699881,RU_myo,0.805772813189754,0.5710787395048359,-0.0202648719020527,-0.1555267879711759,8.875,23.8125,42.0,-0.08251953125,0.73388671875,0.2685546875
1969/12/31/18:00:07.656,73,1731186290,462260867,RU_myo,0.8032659738888432,0.5765691785223415,-0.0238049946669186,-0.1475299284870314,30.3125,15.25,40.0,-0.0322265625,0.84912109375,0.193359375
1969/12/31/18:00:07.685,74,1731186290,486158144,RU_myo,0.8005163477546053,0.5823657242795799,-0.027223049264091,-0.1388619665376841,26.5625,17.625,42.25,-0.0537109375,1.12158203125,0.1796875
1969/12/31/18:00:07.708,75,1731186290,505537219,RU_myo,0.8008956525377291,0.5834739381608225,-0.0283832389627348,-0.1316005660293684,-7.3125,20.375,31.3125,-0.0498046875,1.1923828125,0.20703125
1969/12/31/18:00:07.729,76,1731186290,522131254,RU_myo,0.8035536137093686,0.5810122938776665,-0.028443295403613,-0.1261637158782578,-25.1875,17.3125,23.1875,-0.0390625,0.98681640625,0.25146484375
1969/12/31/18:00:07.756,77,1731186290,544704759,RU_myo,0.8057176461325957,0.5790179993343789,-0.0293598627113468,-0.1212238822135859,-16.1875,12.125,23.875,-0.03515625,0.91455078125,0.298828125
1969/12/31/18:00:07.781,78,1731186290,565575914,RU_myo,0.8063828508890817,0.5788304121551102,-0.0306414496363877,-0.1173164665361301,-0.4375,7.6875,20.625,-0.0546875,0.9462890625,0.34765625
1969/12/31/18:00:07.801,79,1731186290,582044111,RU_myo,0.8058012382307513,0.5799669266526738,-0.0318609488226368,-0.115358607806099,0.6875,1.1875,11.8125,-0.08349609375,1.05224609375,0.2470703125
1969/12/31/18:00:07.829,80,1731186290,604700748,RU_myo,0.8067083543178248,0.5789842966678435,-0.0333254718512167,-0.1135263326799693,-14.3125,-1.5,13.1875,-0.06640625,1.00390625,0.22998046875
1969/12/31/18:00:07.853,81,1731186290,625626660,RU_myo,0.8078554845000979,0.5776761847607803,-0.0349755340097133,-0.1115188492770441,-12.1875,-0.5625,11.875,-0.01953125,0.9736328125,0.2841796875
1969/12/31/18:00:07.874,82,1731186290,642145390,RU_myo,0.8081416956595628,0.5776015759838703,-0.0357682049589504,-0.1095630168964437,-3.5,3.3125,9.625,-0.0361328125,0.9609375,0.29052734375
1969/12/31/18:00:07.901,83,1731186290,664759910,RU_myo,0.8081866293802459,0.577773176777691,-0.036438895683106,-0.1080959535255959,-6.8125,2.0625,6.9375,-0.03564453125,0.95556640625,0.21240234375
1969/12/31/18:00:07.918,84,1731186290,679018877,RU_myo,0.8083750488448023,0.5776548974831779,-0.0375378024040738,-0.1069369590438004,-3.875,-1.3125,7.75,-0.04345703125,0.9267578125,0.26806640625
1969/12/31/18:00:07.946,85,1731186290,702136008,RU_myo,0.807177343974955,0.5795025486765141,-0.0389427665952829,-0.1054750794304841,21.5,-0.1875,10.1875,-0.05126953125,0.83349609375,0.40673828125
1969/12/31/18:00:07.973,86,1731186290,724507904,RU_myo,0.803979259074338,0.584124013767189,-0.0407727106788382,-0.1037018494660871,35.9375,-0.4375,11.25,-0.05322265625,0.8671875,0.32373046875
1969/12/31/18:00:07.999,87,1731186290,745703495,RU_myo,0.8007029035077253,0.5887772684277724,-0.0427269425564421,-0.1019342772417976,27.5,-1.75,12.625,-0.06103515625,0.93115234375,0.2021484375
1969/12/31/18:00:08.026,88,1731186290,768247340,RU_myo,0.7985535728488182,0.5918806081109066,-0.0455950102360366,-0.0995521575568617,23.625,-2.75,15.1875,0.0048828125,0.98779296875,0.3017578125
1969/12/31/18:00:08.046,89,1731186290,784705769,RU_myo,0.7946839261349535,0.5973557285009823,-0.0458987951193152,-0.0976570108921601,48.875,9.4375,-0.625,0.03955078125,1.166015625,0.4931640625
1969/12/31/18:00:08.070,90,1731186290,805609268,RU_myo,0.7951650366116955,0.5969230931886998,-0.0440673285564663,-0.0972288841973005,-0.1875,9.0625,-1.0625,-0.09130859375,1.08935546875,0.38525390625
1969/12/31/18:00:08.091,91,1731186290,822204336,RU_myo,0.7989332010612701,0.5917074223460885,-0.0429711187674485,-0.0986992884189834,-52.5625,-3.6875,-4.25,-0.09716796875,1.0419921875,0.099609375
1969/12/31/18:00:08.118,92,1731186290,844707546,RU_myo,0.8020320154590996,0.5870581373428935,-0.0429093232015028,-0.1013221572041176,-41.6875,-9.5625,-13.375,0.009765625,0.9443359375,0.16943359375
1969/12/31/18:00:08.144,93,1731186290,865659640,RU_myo,0.8047236876117007,0.5832171446548695,-0.0431537960513859,-0.1020553705769693,-20.0625,-3.6875,-3.4375,0.0087890625,0.865234375,0.39013671875
1969/12/31/18:00:08.163,94,1731186290,882207068,RU_myo,0.8059499585495421,0.5816341377626921,-0.0432151295556706,-0.101384647163798,-1.75,2.0625,3.5625,-0.03271484375,0.78759765625,0.40576171875
1969/12/31/18:00:08.190,95,1731186290,904608957,RU_myo,0.8041776361877954,0.584318217170836,-0.0427267055280043,-0.1002246435385472,21.3125,7.1875,2.8125,-0.05126953125,0.822265625,0.318359375
1969/12/31/18:00:08.215,96,1731186290,925645414,RU_myo,0.8003756702263949,0.5897986808051288,-0.0432140604377554,-0.098330298538452,36.125,6.6875,5.5625,-0.02685546875,0.8818359375,0.2431640625
1969/12/31/18:00:08.236,97,1731186290,942132747,RU_myo,0.7970689093875959,0.5945515159158107,-0.0440069441510419,-0.0961927100999196,31.625,6.375,5.375,0.015625,0.9521484375,0.251953125
1969/12/31/18:00:08.265,98,1731186290,966099104,RU_myo,0.7960430725574043,0.59620830645152,-0.044251742647149,-0.0943019895032349,5.5625,7.0625,4.0,0.02001953125,1.03076171875,0.2177734375
1969/12/31/18:00:08.288,99,1731186290,985622343,RU_myo,0.7988126180414903,0.5928072244531943,-0.0437647013934246,-0.0925345708681057,-27.25,7.8125,5.6875,0.0048828125,0.90185546875,0.23828125
1969/12/31/18:00:08.307,100,1731186291,1496956,RU_myo,0.8017418631677306,0.5889613428020885,-0.0446802469614601,-0.0913137287627655,-38.5,-0.5625,6.75,0.03271484375,0.927734375,0.1181640625
1969/12/31/18:00:08.342,101,1731186291,30555407,RU_myo,0.8059950517506186,0.5827823365478914,-0.0465102786394525,-0.0925932975013773,-60.25,-14.3125,0.875,0.01123046875,1.0791015625,0.08984375
1969/12/31/18:00:08.361,102,1731186291,45670521,RU_myo,0.8115005756124141,0.5738184965274392,-0.0504174107149946,-0.0982712242749895,-88.875,-39.875,-12.0,0.01318359375,1.20751953125,-0.015625
1969/12/31/18:00:08.380,103,1731186291,61503094,RU_myo,0.822506579189713,0.5557031463408644,-0.0546913465643029,-0.1081008646935051,-129.6875,-58.75,-22.25,0.08740234375,1.029296875,-0.125
1969/12/31/18:00:08.407,104,1731186291,84588728,RU_myo,0.8352802916875158,0.5328459588185614,-0.0606089389583999,-0.1212789141091044,-159.0625,-79.375,-30.75,0.11669921875,1.0087890625,-0.16748046875
1969/12/31/18:00:08.433,105,1731186291,105638174,RU_myo,0.8474903843116497,0.5077617938126477,-0.0682386928095372,-0.1388578051356862,-167.625,-102.875,-45.3125,0.0751953125,1.01513671875,-0.08154296875
1969/12/31/18:00:08.452,106,1731186291,121516737,RU_myo,0.8576165124312568,0.482672505893273,-0.0778819066160617,-0.1595480438043773,-157.5625,-122.625,-56.0625,0.05517578125,0.8115234375,0.103515625
1969/12/31/18:00:08.480,107,1731186291,144557737,RU_myo,0.8633167227634085,0.4619940805002997,-0.0900915923924484,-0.1820143147115727,-118.125,-137.0,-64.5625,0.14794921875,0.591796875,0.26708984375
1969/12/31/18:00:08.515,108,1731186291,173157351,RU_myo,0.863757029106473,0.448328413453964,-0.1056577921972514,-0.2043571856016162,-63.1875,-148.0,-65.375,0.2578125,0.4248046875,0.36474609375
1969/12/31/18:00:08.525,109,1731186291,181552168,RU_myo,0.859123080304212,0.4424102370191779,-0.1256181384913725,-0.2245012212688378,-4.5,-156.875,-54.875,0.3271484375,0.3828125,0.3828125
1969/12/31/18:00:08.554,110,1731186291,204671756,RU_myo,0.8505935202515377,0.4429360775305259,-0.1500867871913412,-0.2403585880274509,45.6875,-163.4375,-31.8125,0.3291015625,0.47802734375,0.41357421875
1969/12/31/18:00:08.579,111,1731186291,226299481,RU_myo,0.8396792535008195,0.4466651724299627,-0.1780434965807872,-0.2524470009798204,76.1875,-169.0,-9.5,0.30712890625,0.59130859375,0.53759765625
1969/12/31/18:00:08.597,112,1731186291,241511334,RU_myo,0.8272900457202489,0.4497786887201205,-0.2099658962134909,-0.2630677362442284,84.6875,-187.625,6.3125,0.302734375,0.6806640625,0.57080078125
1969/12/31/18:00:08.626,113,1731186291,264716387,RU_myo,0.8162760089238785,0.4469559752766234,-0.2432226630448374,-0.2734347629713605,54.9375,-200.125,19.625,0.39306640625,0.759765625,0.5615234375
1969/12/31/18:00:08.653,114,1731186291,287021686,RU_myo,0.8109722510306366,0.4327382599388284,-0.2741692896537683,-0.2826531568091275,-16.4375,-195.8125,43.1875,0.45703125,0.65869140625,0.41455078125
1969/12/31/18:00:08.678,115,1731186291,308067364,RU_myo,0.8106450344905217,0.4070010609127926,-0.3040910746052089,-0.2910899909257811,-83.125,-200.0625,70.5,0.5068359375,0.67919921875,0.42626953125
1969/12/31/18:00:08.698,116,1731186291,324621538,RU_myo,0.8126036077249702,0.3733435683080699,-0.3318406050173249,-0.3002861461624496,-131.875,-200.9375,80.75,0.51953125,0.755859375,0.38720703125
1969/12/31/18:00:08.725,117,1731186291,347191860,RU_myo,0.8135574583228627,0.3322835023714956,-0.3577968205183151,-0.3157425712284619,-180.1875,-220.6875,60.8125,0.48779296875,0.66650390625,0.28515625
1969/12/31/18:00:08.750,118,1731186291,368143143,RU_myo,0.8107836775853081,0.2885105724138627,-0.384456969671022,-0.3340423868883161,-186.5625,-243.1875,47.4375,0.53466796875,0.51318359375,0.51513671875
1969/12/31/18:00:08.770,119,1731186291,384004404,RU_myo,0.8030714939262993,0.2479768566516609,-0.4141695666350408,-0.3493525787531644,-149.25,-256.75,47.375,0.68359375,0.3388671875,0.55322265625
1969/12/31/18:00:08.797,120,1731186291,407324204,RU_myo,0.7902842791717525,0.2149661130091838,-0.4477545159101001,-0.3588261721695036,-84.625,-263.25,50.125,0.83447265625,0.27197265625,0.57421875
1969/12/31/18:00:08.823,121,1731186291,428117050,RU_myo,0.7735165596099663,0.1914107102451554,-0.4846304334650937,-0.36078721564385,-11.0,-260.1875,56.25,0.90966796875,0.361328125,0.6064453125
1969/12/31/18:00:08.842,122,1731186291,443912799,RU_myo,0.7544534894065513,0.1751704161958419,-0.5228867440939993,-0.3559560513080663,46.6875,-252.3125,63.3125,0.931640625,0.3603515625,0.66943359375
1969/12/31/18:00:08.870,123,1731186291,467148587,RU_myo,0.7338269438390121,0.1606448071350145,-0.5620737191893423,-0.34606993026426,71.0,-253.125,80.1875,0.876953125,0.47021484375,0.5556640625
1969/12/31/18:00:08.896,124,1731186291,489504678,RU_myo,0.7116561043426107,0.1459932591412971,-0.6011846164472312,-0.3328792789952486,82.75,-256.875,93.0,0.95361328125,0.6416015625,0.5849609375
1969/12/31/18:00:08.916,125,1731186291,505145971,RU_myo,0.6899197941844061,0.131282508606746,-0.6357222731975207,-0.320363499617299,71.0625,-238.4375,88.25,1.078125,0.71826171875,0.5791015625
1969/12/31/18:00:08.942,126,1731186291,527075370,RU_myo,0.6694434047104881,0.1120621891911429,-0.6633397996347178,-0.3150680940112636,14.3125,-221.8125,73.5625,1.142578125,0.72607421875,0.59033203125
1969/12/31/18:00:08.968,127,1731186291,548093166,RU_myo,0.64948394467763,0.0889904700065768,-0.6858613933222938,-0.3159833081097726,-33.4375,-212.5,64.5625,1.05224609375,0.8154296875,0.60498046875
1969/12/31/18:00:08.987,128,1731186291,564647622,RU_myo,0.6320666309664714,0.065611397092406,-0.7031710752573115,-0.3189629406557339,-53.8125,-184.125,57.625,1.099609375,0.64599609375,0.501953125
1969/12/31/18:00:09.015,129,1731186291,587569348,RU_myo,0.618887393716457,0.0472405170351615,-0.7150163527996345,-0.321711583065034,-45.625,-139.9375,42.125,1.1259765625,0.51171875,0.587890625
1969/12/31/18:00:09.040,130,1731186291,608203171,RU_myo,0.6139581556904627,0.0335086019956321,-0.7179019611523235,-0.3264189498590908,-40.6875,-91.75,24.375,1.0986328125,0.53466796875,0.53125
1969/12/31/18:00:09.059,131,1731186291,624577262,RU_myo,0.6116988854906205,0.026428419219461,-0.7206474497094149,-0.3252587667910114,-2.0,-54.4375,18.875,1.02490234375,0.41455078125,0.3173828125
1969/12/31/18:00:09.097,132,1731186291,654684036,RU_myo,0.6121669127294017,0.0273430485446432,-0.7238583833470293,-0.3170695026549593,55.125,-28.5,16.875,0.94921875,0.38671875,0.3095703125
1969/12/31/18:00:09.113,133,1731186291,668225170,RU_myo,0.6140581202682273,0.0325918930745684,-0.727275276922393,-0.3048623706132388,87.5625,-15.875,17.8125,0.99853515625,0.44287109375,0.310546875
1969/12/31/18:00:09.113,1,1731186297,339631357,RU_myo,0.6011838706950343,0.1232274350186065,-0.7669519308785585,-0.1875571608777503,60.6875,22.1875,-36.875,0.8837890625,0.52294921875,-0.20361328125
1969/12/31/18:00:09.139,2,1731186297,362114890,RU_myo,0.6008067780074408,0.1375679071138532,-0.7655342763660432,-0.1845631548856665,62.75,21.0625,-46.9375,0.9130859375,0.5869140625,-0.2255859375
1969/12/31/18:00:09.165,3,1731186297,383280876,RU_myo,0.5996726910284979,0.1539312495444144,-0.7631254611632884,-0.1853034391819358,53.6875,21.5625,-65.375,0.9287109375,0.70849609375,-0.26025390625
1969/12/31/18:00:09.185,4,1731186297,399820349,RU_myo,0.5970379160539938,0.1737647666127295,-0.7598165014267194,-0.1898167980911798,47.625,24.375,-89.4375,0.8447265625,0.8056640625,-0.3408203125
1969/12/31/18:00:09.221,5,1731186297,429706767,RU_myo,0.5956294711346871,0.1945759559357908,-0.7545616509517509,-0.1949421591150928,45.0625,30.3125,-110.6875,0.8408203125,0.8330078125,-0.29052734375
1969/12/31/18:00:09.237,6,1731186297,443168578,RU_myo,0.595417027413472,0.2165596733227061,-0.7470332135841604,-0.2013003953264613,41.3125,39.5625,-123.375,1.029296875,0.86767578125,-0.0908203125
1969/12/31/18:00:09.258,7,1731186297,459711036,RU_myo,0.5980673880540361,0.2356503913946967,-0.736247260138365,-0.2114811204824201,8.375,54.375,-127.5,1.18896484375,0.8662109375,-0.064453125
1969/12/31/18:00:09.284,8,1731186297,482051936,RU_myo,0.6024769915532597,0.2510371660681346,-0.7229601828536482,-0.2265621104898895,-30.6875,58.8125,-129.9375,1.17919921875,0.923828125,-0.0166015625
1969/12/31/18:00:09.309,9,1731186297,503163933,RU_myo,0.609199149985911,0.2628815488417311,-0.705818953054511,-0.2481719009961641,-77.875,68.375,-139.3125,1.10546875,1.0673828125,0.0244140625
1969/12/31/18:00:09.330,10,1731186297,519907155,RU_myo,0.6182012876122112,0.2707415255057526,-0.6832012255435967,-0.2788588886464797,-140.625,78.5625,-159.9375,1.05615234375,1.095703125,0.029296875
1969/12/31/18:00:09.357,11,1731186297,542191096,RU_myo,0.6294650646577808,0.2739909507659049,-0.6552833253336502,-0.3151292668310019,-191.9375,90.9375,-169.0625,0.91943359375,0.87158203125,0.07861328125
1969/12/31/18:00:09.382,12,1731186297,563134897,RU_myo,0.6420341912806197,0.2775291822181745,-0.623296241216626,-0.3496733417479485,-194.4375,114.6875,-169.1875,0.98876953125,0.94140625,0.10986328125
1969/12/31/18:00:09.408,13,1731186297,585606676,RU_myo,0.6578374372733709,0.280395730825187,-0.5857548604112581,-0.3814700299646101,-200.0625,148.375,-160.625,0.73046875,0.552734375,0.34423828125
1969/12/31/18:00:09.429,14,1731186297,602096106,RU_myo,0.6776346042147628,0.2804657725064705,-0.5417658752486251,-0.4106580451411389,-223.6875,185.375,-144.125,0.7431640625,0.5107421875,0.3525390625
1969/12/31/18:00:09.454,15,1731186297,623279033,RU_myo,0.6980045007734755,0.2803981004331363,-0.4964645513546213,-0.4332315448137573,-208.1875,204.125,-117.4375,0.6474609375,0.560546875,0.35791015625
1969/12/31/18:00:09.474,16,1731186297,638878851,RU_myo,0.717169213423944,0.277895440742061,-0.4523964433955976,-0.4514198725517863,-200.625,196.9375,-93.75,0.5830078125,0.51708984375,0.4052734375
1969/12/31/18:00:09.501,17,1731186297,662008151,RU_myo,0.7355913666266708,0.2733138184329764,-0.407529335792091,-0.4670382623155729,-203.5,198.125,-81.5625,0.6064453125,0.51123046875,0.4619140625
1969/12/31/18:00:09.527,18,1731186297,683223403,RU_myo,0.7537302512685193,0.2686182553917526,-0.3635288182488704,-0.4770552792869663,-187.5625,202.5625,-56.875,0.560546875,0.46240234375,0.54736328125
1969/12/31/18:00:09.546,19,1731186297,699007547,RU_myo,0.7708728618255344,0.2661739153144224,-0.3234858406710477,-0.4798576753501466,-149.6875,200.875,-26.5,0.5205078125,0.4501953125,0.6123046875
1969/12/31/18:00:09.574,20,1731186297,722248391,RU_myo,0.7863040781872123,0.2671468563397832,-0.289241250215726,-0.4761280846028442,-103.8125,191.375,0.6875,0.44482421875,0.4248046875,0.64697265625
1969/12/31/18:00:09.599,21,1731186297,743253631,RU_myo,0.7993021062984017,0.2738598465913965,-0.2609816590204616,-0.4669105920267847,-50.0,184.5625,18.9375,0.3955078125,0.41357421875,0.58544921875
1969/12/31/18:00:09.619,22,1731186297,758862451,RU_myo,0.8098836011734285,0.2850370350048919,-0.2390160661839736,-0.45355678953348,-2.0,170.6875,34.4375,0.37939453125,0.40185546875,0.6279296875
1969/12/31/18:00:09.646,23,1731186297,782235488,RU_myo,0.8179428638205637,0.3020669526936773,-0.2241240352174546,-0.4353084474866249,53.5,157.25,54.9375,0.328125,0.4482421875,0.5888671875
1969/12/31/18:00:09.672,24,1731186297,803213011,RU_myo,0.8257528207848567,0.3217805359729296,-0.2114278787196942,-0.4121744991322446,76.0,162.3125,77.5625,0.32080078125,0.4033203125,0.359375
1969/12/31/18:00:09.691,25,1731186297,819044037,RU_myo,0.8327053882587689,0.3416759337002557,-0.1967169586130625,-0.3887952300233349,71.8125,171.1875,72.625,0.3017578125,0.56396484375,0.29443359375
1969/12/31/18:00:09.719,26,1731186297,842144077,RU_myo,0.8346194046443368,0.3652451745935141,-0.1859796201514768,-0.3679918378382848,104.875,148.5,54.25,0.1806640625,0.931640625,0.5712890625
1969/12/31/18:00:09.725,27,1731186297,847500087,RU_myo,0.8339946572569492,0.3861741947061415,-0.1785910690232606,-0.3513226908058401,97.625,113.1875,41.5,-0.01318359375,0.9345703125,0.333984375
1969/12/31/18:00:09.753,28,1731186297,870093456,RU_myo,0.8381593579051967,0.3927117177950798,-0.1666308656482076,-0.3398537215857949,-11.9375,97.3125,34.1875,-0.05810546875,0.62060546875,0.10888671875
1969/12/31/18:00:09.772,29,1731186297,886534884,RU_myo,0.8443887614659717,0.3935679292997388,-0.1560721456605819,-0.3282581147292175,-28.625,84.9375,42.5625,0.01513671875,0.57763671875,0.30859375
1969/12/31/18:00:09.797,30,1731186297,907376766,RU_myo,0.8449248583764631,0.4035106724501046,-0.1558255554023774,-0.3146418872304173,52.0625,55.5625,51.75,0.1103515625,0.6279296875,0.38720703125
1969/12/31/18:00:09.825,31,1731186297,929969252,RU_myo,0.8436619882571598,0.4145064796884946,-0.1588809257295172,-0.3019531077925169,61.125,36.625,52.3125,0.08984375,0.61474609375,0.2529296875
1969/12/31/18:00:09.844,32,1731186297,946456797,RU_myo,0.8441745384294095,0.4206529476433728,-0.1616205753568849,-0.2903433070138602,26.6875,29.25,53.6875,0.10595703125,0.7548828125,0.25634765625
1969/12/31/18:00:09.870,33,1731186297,967517633,RU_myo,0.8438119986225859,0.4270024406772955,-0.1659547793312702,-0.2794802995799508,35.125,19.4375,51.625,0.134765625,0.99658203125,0.47509765625
1969/12/31/18:00:09.898,34,1731186297,990065427,RU_myo,0.8414413312189297,0.4348810013734857,-0.1710226759085623,-0.2713047089270377,44.125,8.5,38.125,0.11865234375,1.1884765625,0.5439453125
1969/12/31/18:00:09.918,35,1731186298,6644615,RU_myo,0.8439674027468361,0.4318412797015886,-0.1712716085996689,-0.26813833805358,-30.8125,5.0,23.125,0.06201171875,1.01123046875,0.47119140625
1969/12/31/18:00:09.943,36,1731186298,27649366,RU_myo,0.8480967388497093,0.4245671763539818,-0.1699245283164872,-0.2675823032110201,-56.1875,0.8125,13.6875,0.05126953125,0.865234375,0.4541015625
1969/12/31/18:00:09.970,37,1731186298,50078333,RU_myo,0.8506729874064505,0.4187750137472668,-0.1710257380148435,-0.2678304562487985,-31.4375,-11.875,10.125,0.07568359375,0.7490234375,0.57958984375
1969/12/31/18:00:09.989,38,1731186298,66389602,RU_myo,0.851333060817711,0.4165721350789272,-0.1751739234690873,-0.2664840940299774,3.4375,-17.0,15.125,0.14453125,0.634765625,0.61328125
1969/12/31/18:00:10.015,39,1731186298,87531439,RU_myo,0.8498739921534845,0.4187722967656605,-0.1811567084682233,-0.2636782279591391,27.375,-16.0625,16.9375,0.18896484375,0.69287109375,0.52587890625
1969/12/31/18:00:10.052,40,1731186298,118321367,RU_myo,0.8470354113550378,0.4240059808822198,-0.1875587130057667,-0.2599455121026881,47.75,-14.9375,20.3125,0.15283203125,0.77294921875,0.57080078125
1969/12/31/18:00:10.062,41,1731186298,126390844,RU_myo,0.8430297352061986,0.4313416694687377,-0.1950101364019551,-0.2553747764337341,62.3125,-16.875,23.5,0.16259765625,0.86083984375,0.58984375
1969/12/31/18:00:10.088,42,1731186298,147662804,RU_myo,0.8376808288892936,0.4405698209649462,-0.2028891777344806,-0.2510478904999755,66.8125,-15.25,16.6875,0.25146484375,1.1259765625,0.58740234375
1969/12/31/18:00:10.125,43,1731186298,178095997,RU_myo,0.833035528525983,0.447585692459044,-0.2075874730742136,-0.2502524668051384,47.375,-11.9375,-4.0625,0.24609375,1.16015625,0.6064453125
1969/12/31/18:00:10.134,44,1731186298,186373074,RU_myo,0.8315926222116277,0.4484191556248681,-0.2085542745025418,-0.2527431228314385,0.9375,-8.625,-15.875,0.2001953125,0.99853515625,0.51416015625
1969/12/31/18:00:10.160,45,1731186298,207613985,RU_myo,0.8325455018449344,0.4452653545424337,-0.2087467460637592,-0.2550128377352005,-21.5,-7.625,-9.25,0.1845703125,0.845703125,0.4873046875
1969/12/31/18:00:10.187,46,1731186298,229921223,RU_myo,0.8347964929504096,0.4400733138972328,-0.2090500832313484,-0.2564144232569036,-29.25,-9.6875,2.25,0.1279296875,0.72900390625,0.49853515625
1969/12/31/18:00:10.207,47,1731186298,246497252,RU_myo,0.8372256570197905,0.4351229648533998,-0.2088028703553767,-0.2571430847141778,-26.6875,-6.0625,6.1875,0.09130859375,0.70166015625,0.52001953125
1969/12/31/18:00:10.232,48,1731186298,267551485,RU_myo,0.8378487247610878,0.4336646892567589,-0.2088060382754922,-0.2575742418949363,-2.6875,-4.9375,2.625,0.0703125,0.68603515625,0.54931640625
1969/12/31/18:00:10.260,49,1731186298,290172182,RU_myo,0.8366076369605517,0.4356072594285735,-0.2095944134619198,-0.2576900447397278,24.1875,-3.5,-3.75,0.12158203125,0.689453125,0.62353515625
1969/12/31/18:00:10.280,50,1731186298,306627946,RU_myo,0.8341244479721005,0.440622302788716,-0.2109420526995155,-0.256109043150222,43.9375,2.625,-2.4375,0.17578125,0.76708984375,0.642578125
1969/12/31/18:00:10.306,51,1731186298,327651787,RU_myo,0.8313364014072215,0.4467975373201807,-0.2120457164822825,-0.2535514986377091,41.625,7.8125,1.6875,0.1591796875,0.88232421875,0.53466796875
1969/12/31/18:00:10.332,52,1731186298,350108027,RU_myo,0.8294204896930232,0.4514845361880412,-0.2121006845009386,-0.2514690129910409,26.0625,9.375,2.8125,0.12060546875,0.95849609375,0.50146484375
1969/12/31/18:00:10.353,53,1731186298,366734479,RU_myo,0.82852368609164,0.4540583248000375,-0.2108236932194286,-0.2508643251684573,14.5625,11.125,-6.4375,0.16845703125,1.01708984375,0.611328125
1969/12/31/18:00:10.377,54,1731186298,387582149,RU_myo,0.828770607459785,0.4552805981030002,-0.2074062839997311,-0.2506820507318704,10.8125,18.5625,-11.625,0.15380859375,0.8740234375,0.6767578125
1969/12/31/18:00:10.405,55,1731186298,410045626,RU_myo,0.8283185815787605,0.4577694614870461,-0.2038600001822312,-0.2505524852539099,12.1875,18.8125,-10.75,0.08203125,0.84765625,0.5595703125
1969/12/31/18:00:10.427,56,1731186298,428012342,RU_myo,0.8274793672709032,0.4604635499514416,-0.2008729510724011,-0.2508012628248242,11.5,14.0625,-9.625,0.0419921875,0.85205078125,0.5087890625
1969/12/31/18:00:10.449,57,1731186298,447485371,RU_myo,0.8258898500177143,0.4638191538160233,-0.1986139658530517,-0.251655003445646,21.25,10.4375,-15.4375,0.072265625,0.814453125,0.548828125
1969/12/31/18:00:10.477,58,1731186298,470028404,RU_myo,0.8235990759297123,0.4683174529130489,-0.1964089096147779,-0.2525606177706498,29.9375,9.875,-16.4375,0.03515625,0.7041015625,0.50390625
1969/12/31/18:00:10.499,59,1731186298,487802978,RU_myo,0.8202057577693123,0.4744351358193826,-0.1948888960081421,-0.2533616684402749,37.125,6.375,-13.5625,-0.03369140625,0.7509765625,0.44091796875
1969/12/31/18:00:10.523,60,1731186298,507562634,RU_myo,0.8147452694146359,0.4829634666924873,-0.1939055900015205,-0.2556111460265559,43.0,-0.4375,-19.375,-0.109375,0.9248046875,0.353515625
1969/12/31/18:00:10.550,61,1731186298,530079486,RU_myo,0.8083661029723069,0.4916482149986357,-0.1925088106897203,-0.26032025288258,36.0625,-5.6875,-33.9375,-0.1015625,1.1796875,0.349609375
1969/12/31/18:00:10.571,62,1731186298,547962027,RU_myo,0.8059186226079623,0.4928652588275747,-0.187685531999355,-0.2689854112263927,-5.3125,-2.875,-58.5,0.04638671875,1.1650390625,0.556640625
1969/12/31/18:00:10.594,63,1731186298,567488480,RU_myo,0.8069613833901189,0.4891451876929441,-0.1796909698737244,-0.2779594690234174,-22.0,11.625,-68.75,0.17919921875,0.908203125,0.787109375
1969/12/31/18:00:10.622,64,1731186298,590014957,RU_myo,0.8086244344888954,0.4864686551084312,-0.1712711475827174,-0.2830917970380055,-17.125,28.6875,-55.8125,0.22021484375,0.88330078125,0.7666015625
1969/12/31/18:00:10.643,65,1731186298,606553675,RU_myo,0.8119779394940306,0.4838419248567376,-0.160161626192012,-0.2844944129881738,-24.25,51.25,-37.5625,0.11669921875,0.85205078125,0.7353515625
1969/12/31/18:00:10.667,66,1731186298,627437198,RU_myo,0.8159816728274539,0.4813858518655194,-0.1464238187682745,-0.284607864492065,-28.625,65.4375,-33.3125,0.01513671875,0.7783203125,0.71435546875
1969/12/31/18:00:10.695,67,1731186298,650081659,RU_myo,0.8189115849845507,0.4813249429222752,-0.1316532972208151,-0.2835093025455197,-15.5,75.4375,-31.0625,-0.041015625,0.6796875,0.65576171875
1969/12/31/18:00:10.716,68,1731186298,667893565,RU_myo,0.8199728571976183,0.4851231404649895,-0.1189613740269583,-0.2795500733932627,10.1875,79.8125,-20.0,-0.02734375,0.6611328125,0.59912109375
1969/12/31/18:00:10.749,69,1731186298,694967022,RU_myo,0.8201912027167979,0.4909062243973214,-0.1067505888935615,-0.2736818985698855,21.5625,87.0,-14.9375,0.001953125,0.73583984375,0.5966796875
1969/12/31/18:00:10.767,70,1731186298,710090560,RU_myo,0.8209498779978236,0.4963542310690186,-0.0935699749420567,-0.2663051537326769,21.0625,94.5625,-7.0,-0.04833984375,0.63427734375,0.58642578125
1969/12/31/18:00:10.789,71,1731186298,728204985,RU_myo,0.8200255022042823,0.5046498587439527,-0.0818499589472231,-0.2572688866238221,35.8125,95.25,1.4375,-0.05419921875,0.60546875,0.44921875
1969/12/31/18:00:10.812,72,1731186298,747523202,RU_myo,0.8178510381730572,0.5148573406216685,-0.0708653672153832,-0.2470216547120204,41.1875,95.3125,7.4375,-0.09912109375,0.72216796875,0.35400390625
1969/12/31/18:00:10.840,73,1731186298,770072921,RU_myo,0.8158258197921754,0.5243722593023028,-0.0598166469696492,-0.2363978303198485,39.125,96.0,9.9375,-0.11865234375,0.74365234375,0.3701171875
1969/12/31/18:00:10.861,74,1731186298,787857936,RU_myo,0.8131306713398424,0.5344371834748282,-0.050782519032784,-0.2249812081188004,40.75,88.6875,17.9375,-0.11962890625,0.7763671875,0.27587890625
1969/12/31/18:00:10.885,75,1731186298,807883816,RU_myo,0.809984090026923,0.5445876451560066,-0.0446803582441377,-0.2129641665489023,37.5625,74.6875,30.9375,-0.16064453125,0.8818359375,0.15478515625
1969/12/31/18:00:10.912,76,1731186298,830052177,RU_myo,0.8084568639609447,0.550995855868286,-0.0388816173909491,-0.2031976519536417,14.6875,62.625,22.125,-0.14306640625,0.94287109375,0.16845703125
1969/12/31/18:00:10.934,77,1731186298,847976332,RU_myo,0.807774070410813,0.5556269731713488,-0.0349746518320534,-0.1937949730659159,19.625,53.875,27.0,-0.0859375,0.71435546875,0.27490234375
1969/12/31/18:00:10.959,78,1731186298,869223163,RU_myo,0.8072210853786957,0.5600191650925923,-0.0346082688400544,-0.1832346085676253,15.75,40.0,43.0,-0.0869140625,0.826171875,0.20556640625
1969/12/31/18:00:10.980,79,1731186298,885682231,RU_myo,0.8068556854600171,0.5633157667834554,-0.0356459429842385,-0.1743233102105914,3.4375,24.8125,42.9375,-0.15673828125,1.107421875,0.1943359375
1969/12/31/18:00:11.006,80,1731186298,907742068,RU_myo,0.8085771262059311,0.5627750512281033,-0.0356464891450338,-0.1679779762450911,-14.8125,19.8125,29.0625,-0.10693359375,0.96728515625,0.2587890625
1969/12/31/18:00:11.030,81,1731186298,927548020,RU_myo,0.8105575069475905,0.5617139108764063,-0.0364995021953809,-0.1616842496915788,-10.4375,17.5,29.125,-0.0283203125,0.76611328125,0.28515625
1969/12/31/18:00:11.057,82,1731186298,950085246,RU_myo,0.8111326793111987,0.5627694561855107,-0.0385759540465556,-0.1544869298921396,1.75,16.0625,35.25,-0.0283203125,0.927734375,0.29443359375
1969/12/31/18:00:11.079,83,1731186298,967967272,RU_myo,0.812234573738907,0.56289375809876,-0.0398579076164053,-0.1477733450831813,-10.1875,16.4375,32.0,-0.056640625,1.07275390625,0.26953125
1969/12/31/18:00:11.102,84,1731186298,987409579,RU_myo,0.8130029749854534,0.5629984565514882,-0.040528076230506,-0.1428858832162872,-5.6875,13.875,21.375,-0.0390625,0.9755859375,0.29931640625
1969/12/31/18:00:11.123,85,1731186299,5431307,RU_myo,0.8127715791030813,0.5642280322340705,-0.0422377540356963,-0.1387986310363778,4.875,7.0,21.0625,-0.0419921875,0.94873046875,0.3095703125
1969/12/31/18:00:11.151,86,1731186299,27779906,RU_myo,0.8123791387144752,0.5654305290045755,-0.0445557303727698,-0.1354372132838032,-4.0625,0.5625,19.875,-0.056640625,1.07177734375,0.20361328125
1969/12/31/18:00:11.175,87,1731186299,47652647,RU_myo,0.8139347764626609,0.5634980019724999,-0.0457781089124106,-0.1337331155027889,-24.6875,-1.3125,11.625,-0.0517578125,1.0283203125,0.21728515625
1969/12/31/18:00:11.197,88,1731186299,65677262,RU_myo,0.815094842330267,0.5619112714162376,-0.0469378413772633,-0.1329396859813779,-10.1875,-2.5625,5.0,-0.01904296875,0.93896484375,0.3603515625
1969/12/31/18:00:11.224,89,1731186299,87753352,RU_myo,0.8144964580735035,0.5629571967035314,-0.0487086460988201,-0.1315377598282673,11.1875,-1.4375,7.6875,-0.00634765625,0.89599609375,0.39111328125
1969/12/31/18:00:11.247,90,1731186299,107271566,RU_myo,0.8126518131935815,0.565755569813077,-0.0503558469193859,-0.1303148280883503,16.625,-2.0,8.0,-0.05322265625,0.9599609375,0.30615234375
1969/12/31/18:00:11.269,91,1731186299,125581834,RU_myo,0.8110118483770878,0.5680806256375072,-0.0513939923484238,-0.1300109307626399,12.4375,-3.625,4.625,-0.0908203125,0.92919921875,0.2802734375
1969/12/31/18:00:11.296,92,1731186299,147941589,RU_myo,0.8095271984809106,0.5701420162112785,-0.052735542447976,-0.1297025783587374,16.5625,-4.5625,5.25,-0.0751953125,0.841796875,0.322265625
1969/12/31/18:00:11.319,93,1731186299,167591764,RU_myo,0.8075820798206597,0.572955406490555,-0.0541399217595741,-0.1288493515608353,21.375,-1.875,5.4375,-0.04541015625,0.85498046875,0.322265625
1969/12/31/18:00:11.341,94,1731186299,185578321,RU_myo,0.8058643730656198,0.5755738118616068,-0.0545665946770176,-0.1277493094619664,18.5,3.25,3.5,-0.04541015625,0.96630859375,0.33740234375
1969/12/31/18:00:11.368,95,1731186299,207886305,RU_myo,0.8033503573722937,0.5793497638791834,-0.0539554563073322,-0.1267709080886076,24.75,10.25,-7.125,0.01318359375,1.26171875,0.4228515625
1969/12/31/18:00:11.395,96,1731186299,230372485,RU_myo,0.8043298811772961,0.5783753190192789,-0.0507207566594576,-0.1263441230867356,-1.9375,16.1875,-7.0625,-0.07568359375,0.9638671875,0.45263671875
1969/12/31/18:00:11.414,97,1731186299,245649701,RU_myo,0.8053281319500827,0.576987026779152,-0.0491351482658645,-0.1269578986248425,-13.4375,3.4375,-4.125,-0.1015625,0.82568359375,0.255859375
1969/12/31/18:00:11.441,98,1731186299,268122223,RU_myo,0.8044108859310563,0.5779013785564338,-0.0502337172108095,-0.1281783792742407,6.6875,-7.25,-7.875,0.00390625,0.9482421875,0.31298828125
1969/12/31/18:00:11.465,99,1731186299,288280618,RU_myo,0.8033931676687307,0.5794416760886841,-0.0507843120726625,-0.1273880520380368,15.6875,3.8125,-3.1875,0.04296875,0.99169921875,0.4052734375
1969/12/31/18:00:11.486,100,1731186299,304802845,RU_myo,0.8035146106807616,0.5796853735669396,-0.0492583022500284,-0.1261061368631459,1.5,12.8125,-2.3125,-0.01806640625,0.9111328125,0.33740234375
1969/12/31/18:00:11.512,101,1731186299,327267376,RU_myo,0.8038214338090633,0.5797475873884489,-0.0473661958110587,-0.1245804196525399,-3.0625,13.4375,1.5,-0.06689453125,0.822265625,0.26025390625
1969/12/31/18:00:11.547,102,1731186299,355807336,RU_myo,0.8037596582240553,0.580357444592521,-0.0473051135421964,-0.122138751223142,0.125,9.5,8.0,-0.01904296875,0.84375,0.23486328125
1969/12/31/18:00:11.567,103,1731186299,372212375,RU_myo,0.8046701010239466,0.5796823143005706,-0.0474268883027843,-0.1192691631192287,-8.75,10.125,9.4375,0.0146484375,0.86669921875,0.24267578125
1969/12/31/18:00:11.585,104,1731186299,387323137,RU_myo,0.805793131570686,0.5784962354966643,-0.0474247283161962,-0.1174326605924859,-18.25,5.625,7.6875,-0.0302734375,0.93310546875,0.1806640625
1969/12/31/18:00:11.610,105,1731186299,408044335,RU_myo,0.8076062555766539,0.5757803498491857,-0.0480986871282898,-0.1180493158707012,-35.0,-8.1875,3.125,-0.0888671875,1.033203125,0.11328125
1969/12/31/18:00:11.629,106,1731186299,423913977,RU_myo,0.8111404927445302,0.5696722265621716,-0.0516385624849027,-0.1218938643999418,-66.5625,-33.8125,-2.9375,-0.05419921875,1.06640625,-0.029296875
1969/12/31/18:00:11.657,107,1731186299,447371851,RU_myo,0.8171508286748401,0.5590903488692512,-0.0573128643655269,-0.1280536628742018,-95.8125,-51.5,-7.9375,0.021484375,1.01611328125,-0.04345703125
1969/12/31/18:00:11.682,108,1731186299,468224102,RU_myo,0.8261941786741043,0.5425561505787613,-0.063173092119363,-0.1380042137989176,-112.6875,-68.25,-17.8125,0.0625,0.95458984375,-0.052734375
1969/12/31/18:00:11.702,109,1731186299,483931420,RU_myo,0.8358541335519157,0.522546168930769,-0.0712923636620883,-0.1523508045381613,-132.375,-94.875,-29.4375,0.0634765625,0.9228515625,-0.09326171875
1969/12/31/18:00:11.730,110,1731186299,507274996,RU_myo,0.8452418433202107,0.5001990833339924,-0.0819728333029349,-0.1692558948243027,-139.0,-116.875,-33.875,0.1064453125,0.81640625,0.03271484375
1969/12/31/18:00:11.755,111,1731186299,528277559,RU_myo,0.8524821764628364,0.4787010603564134,-0.0951542717194502,-0.1872567707731067,-123.1875,-131.0,-35.5625,0.19970703125,0.6435546875,0.2060546875
1969/12/31/18:00:11.774,112,1731186299,544142479,RU_myo,0.8572590631142076,0.4590562772290463,-0.1110866140881351,-0.2050219432538713,-102.3125,-142.625,-31.375,0.26806640625,0.5537109375,0.3115234375
1969/12/31/18:00:11.802,113,1731186299,567232214,RU_myo,0.8590381638933885,0.442825201012259,-0.1294599932938664,-0.2218093425883596,-74.0,-149.5625,-26.0,0.32568359375,0.59521484375,0.38232421875
1969/12/31/18:00:11.827,114,1731186299,588113592,RU_myo,0.8577587145864369,0.4298864745486569,-0.1511286257251845,-0.2379238219211507,-45.0,-161.9375,-20.625,0.3447265625,0.58935546875,0.4296875
1969/12/31/18:00:11.847,115,1731186299,604050616,RU_myo,0.8539751699077801,0.4189001208689225,-0.1763982732494807,-0.2532444414228704,-22.0625,-177.0625,-13.25,0.37744140625,0.53369140625,0.46923828125
1969/12/31/18:00:11.874,116,1731186299,626947595,RU_myo,0.8482886326350205,0.4083358002826512,-0.2058158921604036,-0.2670357438320776,-7.25,-194.9375,0.625,0.4326171875,0.4375,0.4609375
1969/12/31/18:00:11.919,117,1731186299,664494825,RU_myo,0.8412825929868436,0.3979047539491572,-0.2395729650637278,-0.2766228478137107,8.1875,-207.4375,28.3125,0.51904296875,0.4296875,0.46044921875
1969/12/31/18:00:11.923,118,1731186299,666837654,RU_myo,0.8332243114962073,0.3871615125500288,-0.2758289256209333,-0.2824209866891035,17.5625,-212.3125,50.625,0.59423828125,0.52880859375,0.45166015625
1969/12/31/18:00:11.947,119,1731186299,687238409,RU_myo,0.8251441092757782,0.3727461406425902,-0.3125037236106209,-0.287295903717811,1.5,-219.3125,63.0625,0.57666015625,0.58154296875,0.42822265625
1969/12/31/18:00:11.972,120,1731186299,708275731,RU_myo,0.8173936498287503,0.3515061252511778,-0.3508347296307987,-0.2919350229339092,-28.375,-237.9375,81.75,0.53564453125,0.59521484375,0.42236328125
1969/12/31/18:00:11.999,121,1731186299,730571937,RU_myo,0.809035357414537,0.3226375631303842,-0.391120224089955,-0.297307523648903,-62.0625,-263.5,97.4375,0.5693359375,0.63818359375,0.40478515625
1969/12/31/18:00:12.019,122,1731186299,747441369,RU_myo,0.7984581900115212,0.2900377097488724,-0.4293192866947745,-0.3066391948186732,-86.4375,-273.125,80.125,0.69384765625,0.728515625,0.53125
1969/12/31/18:00:12.047,123,1731186299,769694758,RU_myo,0.7839506909831366,0.25812266211209,-0.4670500379479104,-0.3172668710472083,-82.0625,-282.5,67.25,1.56494140625,0.1982421875,-0.70068359375
1969/12/31/18:00:12.073,124,1731186299,790678435,RU_myo,0.765673748727102,0.2255212835031201,-0.5087198641403264,-0.3226266588897139,-52.5625,-303.1875,83.0625,1.0888671875,0.35400390625,0.62353515625
1969/12/31/18:00:12.093,125,1731186299,807414751,RU_myo,0.7442624818228077,0.2008666416006938,-0.5494993540963374,-0.3221434622815138,0.9375,-289.375,83.5,1.091796875,0.68603515625,0.73681640625
1969/12/31/18:00:12.120,126,1731186299,829797999,RU_myo,0.7212125013871866,0.1839043048984084,-0.58522219560768,-0.3217867558660501,25.25,-260.3125,52.5625,0.935546875,0.74951171875,0.64208984375
1969/12/31/18:00:12.145,127,1731186299,850719184,RU_myo,0.6989627854408224,0.1704683076961418,-0.6191301515466034,-0.3147529762939505,58.6875,-236.4375,65.0625,1.01220703125,0.5390625,0.55078125
1969/12/31/18:00:12.164,128,1731186299,867243243,RU_myo,0.6749794461562559,0.1619853015732619,-0.6528849928143114,-0.303157872236018,96.5625,-230.4375,63.875,1.00439453125,0.60205078125,0.57373046875
1969/12/31/18:00:12.192,129,1731186299,889647482,RU_myo,0.6532554822081132,0.1578359971026983,-0.6812094213701534,-0.2903425515149018,107.0625,-193.25,53.25,1.00537109375,0.72265625,0.52734375
1969/12/31/18:00:12.217,130,1731186299,910712490,RU_myo,0.6361621853300947,0.1531964967071417,-0.7026287131843089,-0.2795378306449039,79.9375,-150.5,49.6875,1.1298828125,0.837890625,0.35205078125
1969/12/31/18:00:12.237,131,1731186299,927208691,RU_myo,0.6221921834777325,0.1431884306885187,-0.7187497697306041,-0.2752684664983886,22.0625,-132.375,47.625,1.15771484375,0.81591796875,0.24560546875
1969/12/31/18:00:12.266,132,1731186299,951121189,RU_myo,0.6072280133380339,0.1296974096234116,-0.7339957873558343,-0.2751416106269833,-7.5625,-142.3125,44.3125,1.07080078125,0.6796875,0.236328125
1969/12/31/18:00:12.290,133,1731186299,970708019,RU_myo,0.5963092125526028,0.1146842385247022,-0.7449287552921717,-0.2763041765839952,-25.9375,-117.625,47.9375,1.1181640625,0.587890625,0.44775390625
1969/12/31/18:00:12.290,1,1731186305,724776163,RU_myo,0.6522218643459257,0.0895996347426369,-0.7360841927767044,-0.1573486773613884,10.4375,-10.625,-33.125,1.02978515625,0.58251953125,-0.15966796875
1969/12/31/18:00:12.315,2,1731186305,745905344,RU_myo,0.6471596986614259,0.1007086204650903,-0.7375533149697887,-0.1644907467596475,13.1875,-10.8125,-60.1875,1.03271484375,0.6845703125,-0.2734375
1969/12/31/18:00:12.335,3,1731186305,762163960,RU_myo,0.6431205666638816,0.1145617636545606,-0.7370526680300877,-0.1732769563214159,17.25,-5.25,-80.5625,1.10546875,0.71826171875,-0.1689453125
1969/12/31/18:00:12.362,4,1731186305,784731739,RU_myo,0.6423357419529853,0.1293338499808415,-0.7337056208681905,-0.1798710976373477,30.3125,7.375,-80.1875,1.1181640625,0.68994140625,0.0478515625
1969/12/31/18:00:12.371,5,1731186305,791557442,RU_myo,0.6434501673454338,0.1446572658517053,-0.7281692749412849,-0.1865895619023896,29.625,21.75,-84.5625,1.13818359375,0.7119140625,0.09375
1969/12/31/18:00:12.397,6,1731186305,814039022,RU_myo,0.6447760235464781,0.1598512311310324,-0.7210700437502928,-0.1968996073420048,14.4375,22.625,-95.9375,1.109375,0.78564453125,0.1494140625
1969/12/31/18:00:12.425,7,1731186305,837247744,RU_myo,0.6459089987863086,0.1756520928382307,-0.7122515369778154,-0.2112951860340357,-10.0,38.8125,-122.0,1.09619140625,0.92236328125,0.10986328125
1969/12/31/18:00:12.451,8,1731186305,858302738,RU_myo,0.6491603575263147,0.1919527382869744,-0.6983539686739464,-0.2324794849396138,-43.9375,59.75,-152.8125,1.16845703125,0.97900390625,0.15869140625
1969/12/31/18:00:12.470,9,1731186305,873991377,RU_myo,0.6559480338910613,0.2072764048659201,-0.677615620383229,-0.2600110379060129,-85.9375,91.4375,-178.3125,1.22265625,0.91943359375,0.21630859375
1969/12/31/18:00:12.498,10,1731186305,897348714,RU_myo,0.6664270345585667,0.2186837681860375,-0.6500089676754954,-0.2924735186010304,-135.5,121.5625,-187.8125,1.08935546875,0.69921875,0.1865234375
1969/12/31/18:00:12.533,11,1731186305,925976462,RU_myo,0.6776282361226916,0.2294365465308231,-0.6195214012471014,-0.3230666775173308,-135.8125,136.4375,-182.4375,0.90771484375,0.41162109375,0.27783203125
1969/12/31/18:00:12.552,12,1731186305,942168069,RU_myo,0.6946429997512491,0.2348028837574075,-0.5787369232616943,-0.3569345630915829,-194.625,182.4375,-177.8125,0.8203125,0.53857421875,0.42431640625
1969/12/31/18:00:12.580,13,1731186305,964755073,RU_myo,0.7141563782074458,0.2365669705095342,-0.5318484471156041,-0.3887852430716546,-219.8125,212.875,-159.8125,0.75341796875,0.60205078125,0.369140625
1969/12/31/18:00:12.605,14,1731186305,985821101,RU_myo,0.7347327095769592,0.2333957369515112,-0.48168387971269,-0.4167432248705331,-236.4375,224.25,-131.6875,0.67529296875,0.49267578125,0.4228515625
1969/12/31/18:00:12.624,15,1731186306,2353593,RU_myo,0.7542199602577504,0.2259547052580878,-0.4310351508732081,-0.4408008863786901,-244.125,220.0625,-107.4375,0.6943359375,0.44921875,0.443359375
1969/12/31/18:00:12.661,16,1731186306,32132092,RU_myo,0.7728856700357318,0.2166741000258112,-0.3792101925240466,-0.4603256513787798,-242.3125,225.5,-87.5625,0.69970703125,0.40966796875,0.505859375
1969/12/31/18:00:12.686,17,1731186306,53263513,RU_myo,0.78992470062468,0.208498128367633,-0.3316682756293085,-0.4717453261573289,-204.5625,215.8125,-52.5,0.55908203125,0.17529296875,0.5009765625
1969/12/31/18:00:12.697,18,1731186306,62264791,RU_myo,0.8053594462558213,0.2056275842694855,-0.290283404804296,-0.4741824583525181,-144.625,209.5,-17.3125,0.48828125,0.2353515625,0.6455078125
1969/12/31/18:00:12.725,19,1731186306,84665347,RU_myo,0.8189150231506725,0.2092301333651714,-0.2559834245430364,-0.4691198381110583,-81.0625,200.125,9.5625,0.46337890625,0.2275390625,0.62744140625
1969/12/31/18:00:12.750,20,1731186306,105709977,RU_myo,0.8297717529481764,0.222961104341279,-0.2297359969177591,-0.4571526612417684,1.125,195.0625,29.9375,0.458984375,0.234375,0.59716796875
1969/12/31/18:00:12.777,21,1731186306,128282836,RU_myo,0.8370333934849763,0.2443839658388395,-0.2127068234136752,-0.440916525779165,73.125,170.625,43.125,0.3505859375,0.26025390625,0.732421875
1969/12/31/18:00:12.797,22,1731186306,144766283,RU_myo,0.8412203314427273,0.2732043392495753,-0.2036214646417746,-0.4198166768003975,136.4375,153.8125,61.6875,0.29541015625,0.41845703125,0.626953125
1969/12/31/18:00:12.822,23,1731186306,165772507,RU_myo,0.8444879257546389,0.3022480636265519,-0.1934216707658608,-0.3975855990434893,136.125,159.8125,63.1875,0.20068359375,0.33544921875,0.36767578125
1969/12/31/18:00:12.842,24,1731186306,181622433,RU_myo,0.8473589059232208,0.3289825328045926,-0.1821305895897782,-0.3749424302446406,124.1875,159.3125,65.625,0.14111328125,0.3271484375,0.3759765625
1969/12/31/18:00:12.870,25,1731186306,204791329,RU_myo,0.8473623925378527,0.3551072822722197,-0.1767601735064194,-0.3530320592407218,135.0625,124.75,67.9375,0.13818359375,0.7802734375,0.50048828125
1969/12/31/18:00:12.895,26,1731186306,225650935,RU_myo,0.8470776097559815,0.375807525815505,-0.1703554985465444,-0.3349734776149896,98.375,110.1875,52.75,0.10693359375,1.0361328125,0.2802734375
1969/12/31/18:00:12.914,27,1731186306,241790883,RU_myo,0.8523738343827906,0.3789752336328497,-0.1560701678851983,-0.3247748781060385,-19.5,102.625,26.25,-0.001953125,0.8115234375,0.251953125
1969/12/31/18:00:12.942,28,1731186306,264783601,RU_myo,0.860015286850502,0.3736702332220563,-0.14185064064163,-0.3172107484572078,-66.75,83.375,24.1875,0.01953125,0.60791015625,0.47900390625
1969/12/31/18:00:12.967,29,1731186306,285882984,RU_myo,0.8639275178296237,0.3748324775322678,-0.1370906602405917,-0.3071416751249587,-6.125,56.375,39.125,0.130859375,0.55859375,0.4619140625
1969/12/31/18:00:12.985,30,1731186306,301484670,RU_myo,0.8657856862584645,0.3801278289755176,-0.1361697473417437,-0.2955939427951881,23.25,44.5,49.625,0.10107421875,0.5498046875,0.37890625
1969/12/31/18:00:13.014,31,1731186306,324814498,RU_myo,0.8671547313316429,0.3859378733166733,-0.1365400953043489,-0.2836396168436788,29.5,36.625,56.25,0.0419921875,0.5869140625,0.40673828125
1969/12/31/18:00:13.040,32,1731186306,345862632,RU_myo,0.8645771438168515,0.3985660959494557,-0.1434349656173386,-0.2703291330719968,80.5625,15.625,65.0625,0.07275390625,0.705078125,0.40869140625
1969/12/31/18:00:13.058,33,1731186306,361613790,RU_myo,0.8597547510334499,0.4132145154406116,-0.1524071853848164,-0.2585489937084831,103.0625,2.375,58.375,0.12158203125,0.8955078125,0.39892578125
1969/12/31/18:00:13.087,34,1731186306,384860344,RU_myo,0.8547450512126696,0.4256635237901426,-0.1602799560471629,-0.2500635871764001,76.3125,-2.5625,40.6875,0.10400390625,1.0068359375,0.451171875
1969/12/31/18:00:13.116,35,1731186306,408738014,RU_myo,0.8518785498309176,0.4318292426777776,-0.1662008519875036,-0.2453644601504828,34.25,-9.875,27.4375,0.095703125,1.0556640625,0.46435546875
1969/12/31/18:00:13.130,36,1731186306,421522345,RU_myo,0.8517770310097966,0.4314124009442667,-0.170782668059148,-0.2432951089648906,-4.6875,-16.375,20.75,0.1064453125,0.9404296875,0.46337890625
1969/12/31/18:00:13.159,37,1731186306,444814153,RU_myo,0.8534714505218292,0.4259727707353104,-0.1759067954232934,-0.2432909391246521,-27.6875,-29.25,18.375,0.1298828125,0.83203125,0.51953125
1969/12/31/18:00:13.186,38,1731186306,467046461,RU_myo,0.8538022141929912,0.4212245553435682,-0.1848236420200441,-0.2437865344214188,-23.875,-48.0625,22.5,0.12939453125,0.7099609375,0.296875
1969/12/31/18:00:13.211,39,1731186306,488186868,RU_myo,0.853722769597192,0.4167597819982574,-0.1964777003884579,-0.2426215778329047,0.4375,-54.5,29.5,0.28955078125,0.77490234375,0.63427734375
1969/12/31/18:00:13.232,40,1731186306,504831303,RU_myo,0.8473594567707458,0.4262737481874875,-0.2081319417696638,-0.2386498217945412,84.75,-29.1875,9.0,0.55078125,1.2822265625,0.89404296875
1969/12/31/18:00:13.258,41,1731186306,527302131,RU_myo,0.8446793161890475,0.4309762736910806,-0.210513690406534,-0.2376137421724085,43.75,-1.9375,-7.3125,0.34814453125,1.07958984375,0.87158203125
1969/12/31/18:00:13.284,42,1731186306,548293589,RU_myo,0.8457822868139965,0.4296967091845662,-0.2081343435112743,-0.2381032475183228,-11.625,11.25,-7.75,0.1875,0.826171875,0.56494140625
1969/12/31/18:00:13.304,43,1731186306,564810611,RU_myo,0.8458996453260775,0.4300605311326606,-0.2060579553085242,-0.2388343540054074,-3.4375,5.125,-2.8125,0.03662109375,0.80419921875,0.51220703125
1969/12/31/18:00:13.331,44,1731186306,587311115,RU_myo,0.8467948146620907,0.4280970758281609,-0.2056257554127565,-0.2395610240412791,-7.25,-5.9375,4.4375,0.03759765625,0.75927734375,0.60546875
1969/12/31/18:00:13.356,45,1731186306,608167649,RU_myo,0.849131387063417,0.4239553345703345,-0.2043481802679931,-0.2397490000276812,-18.875,1.8125,3.0,0.14111328125,0.7138671875,0.64453125
1969/12/31/18:00:13.377,46,1731186306,624807088,RU_myo,0.8505729417325706,0.4228144074188386,-0.2019767394469376,-0.2386609402349731,-1.5625,14.0,0.6875,0.15087890625,0.66650390625,0.62255859375
1969/12/31/18:00:13.403,47,1731186306,647358552,RU_myo,0.8494134820073337,0.4273314018060752,-0.1997794140995978,-0.2365857039566273,26.125,19.5,-0.8125,0.1025390625,0.7421875,0.53466796875
1969/12/31/18:00:13.429,48,1731186306,668044852,RU_myo,0.8468190691141043,0.4342129780652831,-0.1985514222162449,-0.2343797913650108,39.8125,16.125,-1.125,0.08642578125,0.80322265625,0.51123046875
1969/12/31/18:00:13.449,49,1731186306,684805135,RU_myo,0.8438300913414868,0.4408668896751941,-0.1985518471706225,-0.2327323065667333,37.75,10.5625,-4.375,0.158203125,0.9599609375,0.55029296875
1969/12/31/18:00:13.476,50,1731186306,707254774,RU_myo,0.8417435475256764,0.4456217562529884,-0.1979388242060596,-0.2317526103948222,26.3125,12.375,-9.0,0.21875,0.9951171875,0.5810546875
1969/12/31/18:00:13.482,51,1731186306,712665426,RU_myo,0.8410272594080958,0.4482548946290046,-0.1958063319675717,-0.2310856523781878,11.625,16.0625,-8.125,0.16943359375,0.958984375,0.57763671875
1969/12/31/18:00:13.510,52,1731186306,735138072,RU_myo,0.8401636315262708,0.4509966635196233,-0.1930575783884921,-0.2312052187592818,11.1875,14.1875,-9.875,0.0908203125,0.90966796875,0.55078125
1969/12/31/18:00:13.528,53,1731186306,750127629,RU_myo,0.8384769455951672,0.4546099068787075,-0.1904991298829815,-0.2323710949902308,21.375,9.9375,-15.4375,0.05615234375,0.84912109375,0.5859375
1969/12/31/18:00:13.555,54,1731186306,772710065,RU_myo,0.8362932953482468,0.4588900806093073,-0.1888542044965678,-0.2331684102058465,36.375,7.8125,-16.75,0.10595703125,0.76171875,0.66943359375
1969/12/31/18:00:13.582,55,1731186306,795248506,RU_myo,0.8326465924545469,0.4661282822588604,-0.1882335501487921,-0.2323622326253085,62.875,9.875,-12.1875,0.1044921875,0.67431640625,0.69140625
1969/12/31/18:00:13.600,56,1731186306,810184313,RU_myo,0.8262969973496568,0.4777849678869193,-0.189087612482585,-0.2306527074150061,78.0,8.1875,-10.0,0.07373046875,0.8193359375,0.48193359375
1969/12/31/18:00:13.628,57,1731186306,832566336,RU_myo,0.8202892401774515,0.4884258129250663,-0.1881190146757128,-0.2306014397939141,60.0625,10.1875,-16.6875,0.005859375,0.99365234375,0.41796875
1969/12/31/18:00:13.656,58,1731186306,855533497,RU_myo,0.8160513997275692,0.4956734044268953,-0.1843287380087703,-0.2332185787852686,34.875,12.625,-30.3125,-0.01025390625,1.11279296875,0.49609375
1969/12/31/18:00:13.673,59,1731186306,869985874,RU_myo,0.8147078245389794,0.4978702221130098,-0.1784080739532092,-0.2377960506745478,-2.9375,15.9375,-41.4375,0.05126953125,1.1005859375,0.47216796875
1969/12/31/18:00:13.700,60,1731186306,893277948,RU_myo,0.8173587143194717,0.4938577669747476,-0.16919709925275,-0.2437243929712232,-43.375,24.3125,-48.125,0.06982421875,0.95849609375,0.5185546875
1969/12/31/18:00:13.728,61,1731186306,915853936,RU_myo,0.821307655957051,0.4883533409120367,-0.158145670079126,-0.2489070021546413,-46.0625,34.875,-48.5,0.07470703125,0.83349609375,0.62744140625
1969/12/31/18:00:13.745,62,1731186306,930034588,RU_myo,0.8244673656382107,0.4851710904247954,-0.1461189571615247,-0.2520155280367316,-27.25,48.4375,-45.1875,0.06591796875,0.7607421875,0.69482421875
1969/12/31/18:00:13.773,63,1731186306,953372877,RU_myo,0.8260612385413543,0.4858465685524737,-0.1333636623476325,-0.252566972445997,-7.75,63.5625,-40.75,0.04345703125,0.80615234375,0.65869140625
1969/12/31/18:00:13.790,64,1731186306,967616538,RU_myo,0.8269288877323123,0.488234733759283,-0.1193272789722963,-0.2521437286110261,-6.0,72.8125,-39.625,-0.01708984375,0.81982421875,0.5478515625
1969/12/31/18:00:13.818,65,1731186306,990060457,RU_myo,0.8288051769914176,0.4889578225847446,-0.1037608661083592,-0.2514675108037882,-16.5,77.1875,-35.1875,-0.11328125,0.75927734375,0.56640625
1969/12/31/18:00:13.845,66,1731186307,13179555,RU_myo,0.8308770885141138,0.4893220905470984,-0.0898443454266345,-0.2492692301103093,-12.3125,74.125,-24.5,-0.095703125,0.6591796875,0.56103515625
1969/12/31/18:00:13.865,67,1731186307,28992519,RU_myo,0.8325206632548894,0.4910284996983567,-0.0777588947937484,-0.244446133162451,-1.125,76.6875,-11.4375,-0.0537109375,0.6171875,0.5361328125
1969/12/31/18:00:13.890,68,1731186307,50140699,RU_myo,0.8336711018350247,0.4942330437515152,-0.0654948815543257,-0.2375639133359141,4.25,82.875,-0.0625,-0.1279296875,0.70703125,0.5185546875
1969/12/31/18:00:13.918,69,1731186307,73307653,RU_myo,0.833536452559948,0.4994138294409413,-0.0536525001318244,-0.2300526427722937,13.25,82.0,5.25,-0.205078125,0.73828125,0.44921875
1969/12/31/18:00:13.935,70,1731186307,87542008,RU_myo,0.8332796353644826,0.504472325394627,-0.043580549344436,-0.2219312008632624,15.6875,75.9375,12.0,-0.18603515625,0.669921875,0.40625
1969/12/31/18:00:13.962,71,1731186307,110127298,RU_myo,0.8327340840727246,0.509540726661226,-0.0350965402288218,-0.213753189358842,16.375,68.4375,15.375,-0.17724609375,0.7080078125,0.3779296875
1969/12/31/18:00:13.991,72,1731186307,133399911,RU_myo,0.8315771776432688,0.5154630993245306,-0.028138364569403,-0.2049034487190585,25.375,65.6875,20.3125,-0.1552734375,0.72216796875,0.39990234375
1969/12/31/18:00:14.008,73,1731186307,147652937,RU_myo,0.8294675348591344,0.5227433930777561,-0.0233781783686105,-0.1953878562870034,37.75,59.9375,26.3125,-0.1171875,0.73779296875,0.39306640625
1969/12/31/18:00:14.035,74,1731186307,170013950,RU_myo,0.8264964452467568,0.5310183201866024,-0.0200810376254473,-0.1857953754767836,33.375,51.3125,30.5625,-0.14697265625,0.865234375,0.22314453125
1969/12/31/18:00:14.063,75,1731186307,193299648,RU_myo,0.8252673324190197,0.5357737330060022,-0.0170290352595892,-0.1777367407739209,11.4375,41.3125,27.1875,-0.16845703125,0.88623046875,0.2275390625
1969/12/31/18:00:14.080,76,1731186307,207543572,RU_myo,0.8244874303801234,0.5396889146743449,-0.016357908746067,-0.1693775998893131,27.25,33.125,38.0,-0.1376953125,0.6552734375,0.40087890625
1969/12/31/18:00:14.107,77,1731186307,230121404,RU_myo,0.8213589282878105,0.5471860587129539,-0.0191042093002961,-0.159974864460307,46.4375,24.25,46.1875,-0.0791015625,0.78564453125,0.318359375
1969/12/31/18:00:14.135,78,1731186307,253369228,RU_myo,0.8179454356311741,0.5545134156189252,-0.021362652225275,-0.1517358669486679,27.6875,20.0,37.75,-0.099609375,1.1201171875,0.1533203125
1969/12/31/18:00:14.153,79,1731186307,267568120,RU_myo,0.8186533739898826,0.5549654396298846,-0.0216077612878331,-0.1461270636244988,-15.625,15.3125,26.125,-0.1162109375,1.00537109375,0.1669921875
1969/12/31/18:00:14.180,80,1731186307,290097448,RU_myo,0.8201636823610831,0.553917200076418,-0.0239878192429787,-0.1411802185979895,-7.25,6.0,26.9375,-0.015625,0.732421875,0.30712890625
1969/12/31/18:00:14.208,81,1731186307,313310859,RU_myo,0.819559163156113,0.5561185324730279,-0.0284437752313062,-0.1350774132765679,12.1875,3.0625,34.0,0.02880859375,0.89453125,0.2978515625
1969/12/31/18:00:14.225,82,1731186307,327552078,RU_myo,0.8185165119973038,0.5588618332473761,-0.0324720942865447,-0.1290338483491648,5.5625,2.0625,35.875,-0.05517578125,1.16455078125,0.2490234375
1969/12/31/18:00:14.252,83,1731186307,350051310,RU_myo,0.8193545966285521,0.5583012883910434,-0.0352180871763017,-0.1253690659620862,-6.0,-1.75,26.9375,-0.0849609375,0.91943359375,0.314453125
1969/12/31/18:00:14.280,84,1731186307,373243287,RU_myo,0.8193471548013606,0.5589065775116254,-0.039063034793867,-0.1215226598040456,8.4375,-4.625,29.0,-0.04541015625,0.77392578125,0.34521484375
1969/12/31/18:00:14.297,85,1731186307,387565438,RU_myo,0.8166368715988667,0.5634483116622422,-0.0437037147817317,-0.1171332802599764,27.4375,-3.375,26.8125,0.02099609375,1.06982421875,0.31494140625
1969/12/31/18:00:14.325,86,1731186307,410104391,RU_myo,0.8152611373881977,0.5658670363649009,-0.0467537644111222,-0.1138325987294294,4.5625,-1.5625,19.0625,-0.00048828125,1.146484375,0.2236328125
1969/12/31/18:00:14.353,87,1731186307,433263883,RU_myo,0.817213839066929,0.5631811257801593,-0.0499886574199577,-0.1117573037068897,-22.8125,-8.5,18.75,0.01123046875,0.890625,0.24169921875
1969/12/31/18:00:14.371,88,1731186307,447658400,RU_myo,0.8163706170084551,0.5642875778873396,-0.0533463864871319,-0.1107822556912408,6.875,-10.875,10.4375,0.02392578125,0.93505859375,0.306640625
1969/12/31/18:00:14.397,89,1731186307,470124905,RU_myo,0.8142443655156593,0.5671633166695281,-0.0561547838286661,-0.1103563577850308,14.625,-10.0625,7.3125,-0.01611328125,1.07666015625,0.28662109375
1969/12/31/18:00:14.425,90,1731186307,493345421,RU_myo,0.8136631810578059,0.5676294039335079,-0.0579226133691289,-0.1113286056747009,-1.3125,-11.375,0.0,-0.0244140625,0.99267578125,0.2783203125
1969/12/31/18:00:14.443,91,1731186307,507780902,RU_myo,0.813145768272845,0.5679568663698261,-0.0598170584677517,-0.1124316547934679,8.5625,-11.5,-1.375,0.001953125,0.837890625,0.3837890625
1969/12/31/18:00:14.470,92,1731186307,530064219,RU_myo,0.811069731670495,0.5707640774270619,-0.0628078532426956,-0.111577022087121,32.8125,-8.125,6.625,0.04638671875,0.89306640625,0.48388671875
1969/12/31/18:00:14.497,93,1731186307,553298514,RU_myo,0.808736101073493,0.5741721134187433,-0.0648209614596263,-0.1098660363722481,25.6875,-1.9375,9.8125,0.0087890625,0.9990234375,0.35693359375
1969/12/31/18:00:14.516,94,1731186307,567822351,RU_myo,0.8092437619983919,0.5736975500846949,-0.0649445891360905,-0.1085258265826776,-4.1875,3.0625,9.5625,-0.05615234375,0.9853515625,0.33349609375
1969/12/31/18:00:14.542,95,1731186307,590005349,RU_myo,0.8107273353287692,0.5718795666838759,-0.0643967278099572,-0.107368572718213,-2.6875,4.625,8.3125,-0.0654296875,0.81982421875,0.45458984375
1969/12/31/18:00:14.570,96,1731186307,612620518,RU_myo,0.8088586264550152,0.5748438382095784,-0.0646378875200619,-0.1054714538570982,26.125,6.8125,6.5,-0.00634765625,0.92333984375,0.40478515625
1969/12/31/18:00:14.587,97,1731186307,627512443,RU_myo,0.807346675061367,0.5772952939238232,-0.0636624013070995,-0.1042525229458543,13.625,8.4375,3.25,-0.056640625,0.99072265625,0.30126953125
1969/12/31/18:00:14.615,98,1731186307,650098977,RU_myo,0.8068096381407815,0.5782807165793437,-0.0631140237431962,-0.1032774933979575,3.875,5.5,3.375,-0.04052734375,0.9384765625,0.283203125
1969/12/31/18:00:14.641,99,1731186307,672613102,RU_myo,0.8047003094546121,0.5811860093011845,-0.0636606813380734,-0.103090019923304,14.8125,-0.625,-0.625,-0.0048828125,1.01953125,0.25146484375
1969/12/31/18:00:14.660,100,1731186307,687637931,RU_myo,0.8039175242461364,0.582231361611411,-0.0636004904915704,-0.103335537814039,0.875,-0.5,-2.375,-0.0146484375,0.96923828125,0.2236328125
1969/12/31/18:00:14.687,101,1731186307,710271583,RU_myo,0.8033811171809047,0.5827290324970443,-0.0645170825756128,-0.1041306933528812,-2.375,-5.375,-6.4375,0.05859375,0.982421875,0.22607421875
1969/12/31/18:00:14.708,102,1731186307,726692490,RU_myo,0.8037697973178046,0.5819076048012718,-0.0662840002951731,-0.1046139746831738,0.0625,-7.875,-1.4375,0.0712890625,0.9033203125,0.361328125
1969/12/31/18:00:14.735,103,1731186307,750629782,RU_myo,0.8034663015096191,0.5822139965132374,-0.0682982977354348,-0.1039428070093346,9.0,-6.0,5.75,0.04345703125,0.9189453125,0.3798828125
1969/12/31/18:00:14.759,104,1731186307,769964379,RU_myo,0.8027002738515508,0.5831494499564837,-0.068666854846247,-0.1043736193662954,5.5,-3.125,-0.5,-0.02685546875,1.02587890625,0.31494140625
1969/12/31/18:00:14.781,105,1731186307,788045988,RU_myo,0.8024009799140966,0.583397882703403,-0.0679959448976345,-0.1057172141496436,1.625,-1.5625,-8.125,-0.02392578125,0.93408203125,0.3125
1969/12/31/18:00:14.809,106,1731186307,810566856,RU_myo,0.8014340306837043,0.5845646391361642,-0.0684240326272987,-0.1063288713976399,14.3125,-2.875,-4.875,0.0185546875,0.8408203125,0.35498046875
1969/12/31/18:00:14.832,107,1731186307,830029738,RU_myo,0.7995430619921249,0.5871291482786662,-0.0693397143616347,-0.1058407259710164,24.1875,-1.1875,1.4375,0.01171875,0.8857421875,0.35888671875
1969/12/31/18:00:14.860,108,1731186307,852612193,RU_myo,0.7982264772863581,0.5890567160338462,-0.0689094427937221,-0.1053478283985513,13.75,3.5625,1.25,-0.0419921875,0.9873046875,0.31591796875
1969/12/31/18:00:14.881,109,1731186307,870653334,RU_myo,0.7977600304040802,0.5899273675482353,-0.0670191670530742,-0.1052286375223132,5.5,8.5625,-3.125,-0.06640625,0.9375,0.30224609375
1969/12/31/18:00:14.904,110,1731186307,890152190,RU_myo,0.7971560644711526,0.5909697562182006,-0.0656768702427994,-0.1048022176643927,6.3125,7.9375,-3.625,-0.01416015625,0.8857421875,0.27685546875
1969/12/31/18:00:14.931,111,1731186307,912575819,RU_myo,0.7960560209434122,0.592677807342473,-0.0653715686574447,-0.1037033568151247,11.3125,6.5,0.3125,0.013671875,0.94482421875,0.27783203125
1969/12/31/18:00:14.954,112,1731186307,930668737,RU_myo,0.7945849558724539,0.5948705622932046,-0.0646996507316639,-0.1028480297008054,11.75,7.25,-2.5,0.01513671875,1.0546875,0.2666015625
1969/12/31/18:00:14.979,113,1731186307,951675047,RU_myo,0.7944046967190114,0.5953609997539175,-0.0622583780755583,-0.102909436701364,-1.9375,10.6875,-7.5625,-0.04443359375,1.017578125,0.25244140625
1969/12/31/18:00:15.008,114,1731186307,975559779,RU_myo,0.7936076122987393,0.5965790495775941,-0.0601217888105105,-0.1032751945861765,2.3125,8.625,-10.375,-0.02001953125,0.873046875,0.18505859375
1969/12/31/18:00:15.025,115,1731186307,990532970,RU_myo,0.7914112702062255,0.5995096017249381,-0.0598166778344979,-0.1033363628304133,15.25,3.5,-8.0,0.03857421875,0.8515625,0.16455078125
1969/12/31/18:00:15.052,116,1731186308,11774428,RU_myo,0.7888422011341651,0.6029234960386323,-0.0604876680071152,-0.1027252727103683,22.625,1.875,-4.4375,0.076171875,0.8671875,0.20751953125
1969/12/31/18:00:15.077,117,1731186308,32597362,RU_myo,0.7865343623265026,0.6059232201470737,-0.0615872397631104,-0.1021164044833337,11.8125,-0.625,-1.75,0.05517578125,0.99365234375,0.10888671875
1969/12/31/18:00:15.099,118,1731186308,50550857,RU_myo,0.7883660544094975,0.6032990153130593,-0.061892472837661,-0.1033372352210652,-38.4375,-5.375,-8.9375,0.056640625,1.26904296875,0.0556640625
1969/12/31/18:00:15.124,119,1731186308,71646999,RU_myo,0.7979930614946121,0.589858111234812,-0.0596938361742183,-0.1082179668066351,-101.25,-11.375,-20.0625,0.01708984375,1.244140625,0.1435546875
1969/12/31/18:00:15.148,120,1731186308,92523323,RU_myo,0.8100958936315276,0.5717426337889179,-0.0573756886688996,-0.1164604404045324,-132.375,-24.125,-33.3125,0.02880859375,1.162109375,0.146484375
1969/12/31/18:00:15.171,121,1731186308,110546103,RU_myo,0.8250980875203586,0.546830430987934,-0.0562150716530737,-0.1304970935876998,-180.8125,-52.25,-52.4375,0.0302734375,1.2529296875,-0.1357421875
1969/12/31/18:00:15.195,122,1731186308,131487026,RU_myo,0.8437772765594178,0.5127118867982573,-0.0548113421839089,-0.1488695585596368,-240.5625,-70.4375,-67.8125,0.00146484375,1.25,-0.2021484375
1969/12/31/18:00:15.222,123,1731186308,153234966,RU_myo,0.8628907675314358,0.4724932751970604,-0.0538353014757534,-0.1710888322409715,-266.4375,-88.875,-82.8125,0.0234375,0.81201171875,-0.021484375
1969/12/31/18:00:15.243,124,1731186308,169883225,RU_myo,0.8770845107034563,0.4356125367355997,-0.0550542956614138,-0.1947652521680396,-229.5625,-101.1875,-90.375,0.0732421875,0.44091796875,0.17236328125
1969/12/31/18:00:15.268,125,1731186308,190808357,RU_myo,0.8844277740795977,0.4087045117485842,-0.0598774083072522,-0.2171700497015326,-154.75,-105.8125,-86.1875,0.13720703125,0.3857421875,0.3671875
1969/12/31/18:00:15.294,126,1731186308,213273340,RU_myo,0.8854484363289323,0.3934376935669882,-0.0689706164645821,-0.2375518931682777,-74.0625,-110.5625,-77.75,0.1416015625,0.38232421875,0.48486328125
1969/12/31/18:00:15.315,127,1731186308,229895657,RU_myo,0.8815999466940003,0.3872106107606437,-0.0823982226555594,-0.2570214189648598,-9.875,-119.9375,-73.0,0.107421875,0.3876953125,0.54736328125
1969/12/31/18:00:15.340,128,1731186308,250667003,RU_myo,0.8739078067094475,0.3873319556766415,-0.1010749635361674,-0.2757588679084567,37.375,-138.25,-66.0,0.0927734375,0.47021484375,0.51611328125
1969/12/31/18:00:15.358,129,1731186308,266572489,RU_myo,0.8643637550252482,0.3888751841865586,-0.1244571496713848,-0.293533316709019,54.5625,-157.8125,-55.25,0.15380859375,0.5517578125,0.4150390625
1969/12/31/18:00:15.387,130,1731186308,289739784,RU_myo,0.8554920947741554,0.3868513767607446,-0.1500895448808253,-0.3097618707890153,40.3125,-169.75,-40.6875,0.31103515625,0.55322265625,0.41015625
1969/12/31/18:00:15.414,131,1731186308,312214687,RU_myo,0.8477205521188713,0.3803115242459995,-0.1772467768272159,-0.3245251764429432,21.3125,-180.0625,-25.3125,0.39794921875,0.53662109375,0.4775390625
1969/12/31/18:00:15.431,132,1731186308,326529211,RU_myo,0.8421332240539054,0.3687270280865146,-0.2055129785742915,-0.3355837113755434,-2.9375,-184.3125,4.375,0.44970703125,0.50927734375,0.419921875
1969/12/31/18:00:15.460,133,1731186308,349773550,RU_myo,0.8386025439662653,0.3507859975379668,-0.2351798239975267,-0.3440718058328726,-31.8125,-196.3125,31.6875,0.43505859375,0.517578125,0.4462890625
1969/12/31/18:00:15.486,134,1731186308,372309718,RU_myo,0.8349716843878289,0.3289226905823106,-0.2661167064276998,-0.3518722047146077,-46.3125,-209.1875,42.9375,0.45263671875,0.45849609375,0.4873046875
1969/12/31/18:00:15.512,135,1731186308,393245823,RU_myo,0.8297353843967621,0.3044519712646056,-0.299263836229022,-0.3595682764073359,-51.0,-227.5,48.25,0.50048828125,0.4130859375,0.453125
1969/12/31/18:00:15.532,136,1731186308,409672620,RU_myo,0.8225844449833667,0.276554880182506,-0.3353937467673518,-0.3665832289508125,-55.9375,-251.125,58.5625,0.53271484375,0.3583984375,0.45751953125
1969/12/31/18:00:15.559,137,1731186308,432133374,RU_myo,0.8072463860433376,0.2462144201798597,-0.3858010287448917,-0.372678544773977,-26.625,-335.5,72.0625,0.94482421875,0.828125,0.5146484375
1969/12/31/18:00:15.584,138,1731186308,453253675,RU_myo,0.7925556361726481,0.2222329666002781,-0.4287185820929288,-0.3723821283241683,8.0,-280.75,77.125,0.91162109375,0.419921875,0.79638671875
1969/12/31/18:00:15.605,139,1731186308,469677938,RU_myo,0.77794310928372,0.1932345742972114,-0.4716119885011223,-0.3674874832102054,-3.0,-287.75,110.875,0.83642578125,0.30224609375,0.798828125
1969/12/31/18:00:15.631,140,1731186308,492154376,RU_myo,0.7592133855613936,0.1640008334274029,-0.5183085513455546,-0.3578477433512702,18.875,-312.875,132.4375,0.78515625,0.51171875,0.7001953125
1969/12/31/18:00:15.657,141,1731186308,513274508,RU_myo,0.7387654691381953,0.1495353105905963,-0.562985185668433,-0.3389873938857846,107.25,-267.4375,119.375,1.0556640625,0.40576171875,0.48779296875
1969/12/31/18:00:15.677,142,1731186308,529657480,RU_myo,0.7177681833158507,0.1396474152573696,-0.604792936094963,-0.3154884132278599,137.375,-246.8125,120.875,1.0146484375,0.31982421875,0.5244140625
1969/12/31/18:00:15.704,143,1731186308,552125607,RU_myo,0.6937095210131102,0.1331145931136365,-0.6453707966912394,-0.2907647508451924,155.25,-247.375,111.75,0.9775390625,0.55517578125,0.4892578125
1969/12/31/18:00:15.729,144,1731186308,573271782,RU_myo,0.6712713377914415,0.1234753515504715,-0.6807318812864109,-0.2659938616198493,132.1875,-225.5,126.5,1.095703125,0.86669921875,0.3623046875
1969/12/31/18:00:15.750,145,1731186308,589761211,RU_myo,0.6569257489369635,0.1069953393929663,-0.7036179535208879,-0.24884198442962,51.8125,-162.9375,130.1875,1.3642578125,1.12646484375,0.37255859375
1969/12/31/18:00:15.776,146,1731186308,612139678,RU_myo,0.6438610685634978,0.0849000612732795,-0.7199110156134663,-0.244873505268438,-32.0,-149.6875,98.5,1.35107421875,0.896484375,0.34326171875
1969/12/31/18:00:15.802,147,1731186308,633250800,RU_myo,0.6296442884578303,0.0598760223901833,-0.733221872551756,-0.2496970515782264,-81.0625,-156.0,74.9375,1.2666015625,0.79638671875,0.58447265625
1969/12/31/18:00:15.822,148,1731186308,649700875,RU_myo,0.6171987353603221,0.0331426931665995,-0.742139974608995,-0.2592210274006416,-113.375,-138.625,63.6875,1.185546875,0.57080078125,0.67724609375
1969/12/31/18:00:15.849,149,1731186308,672262783,RU_myo,0.6079045932337622,0.012328988738275,-0.7478569257924987,-0.2664770536203419,-90.0,-101.625,49.75,1.07421875,0.46337890625,0.45556640625
1969/12/31/18:00:15.875,150,1731186308,694634050,RU_myo,0.6077223259524854,0.0051269132650405,-0.7476748511517471,-0.2676370793714621,-15.625,-43.875,25.9375,1.03564453125,0.44873046875,0.37939453125
1969/12/31/18:00:15.895,151,1731186308,710443854,RU_myo,0.6134508198904952,0.0090940376244835,-0.7452228147311657,-0.2612247049180499,49.875,7.3125,0.1875,1.095703125,0.27294921875,0.36767578125
1969/12/31/18:00:15.921,152,1731186308,732175961,RU_myo,0.6181617815490253,0.0213622258631673,-0.7454196127624652,-0.2485342391851926,100.1875,30.9375,-2.8125,1.13916015625,0.38427734375,0.318359375
1969/12/31/18:00:15.947,153,1731186308,753228352,RU_myo,0.6248227462609849,0.0409549734044271,-0.7444527728968674,-0.2317526587430848,140.75,58.375,-11.8125,1.029296875,0.63330078125,0.08837890625
1969/12/31/18:00:15.967,154,1731186308,769805502,RU_myo,0.6309659061422892,0.0639022348356526,-0.7422302558131533,-0.2165474013341886,143.9375,66.4375,-32.0625,1.0224609375,0.69091796875,-0.01318359375
1969/12/31/18:00:15.994,155,1731186308,792243312,RU_myo,0.6370249746936211,0.0869752408679132,-0.7383435008976462,-0.2036746517727904,132.0625,71.0625,-45.875,1.13134765625,0.52099609375,-0.001953125
1969/12/31/18:00:16.019,156,1731186308,813258591,RU_myo,0.6439163383818233,0.1082145656825566,-0.7330270354469856,-0.1906114431058231,123.4375,78.5,-39.4375,1.10107421875,0.32421875,-0.03173828125
1969/12/31/18:00:16.048,157,1731186308,837295666,RU_myo,0.6501211070974715,0.1271312679387939,-0.7279989265357342,-0.176628847534743,118.6875,74.5,-27.0625,1.05126953125,0.31298828125,-0.1298828125
1969/12/31/18:00:16.066,158,1731186308,852316371,RU_myo,0.6549116815358322,0.1448984465951598,-0.7233935926899052,-0.1636974025982387,111.0625,66.0625,-26.3125,0.98779296875,0.36083984375,-0.18896484375
1969/12/31/18:00:16.091,159,1731186308,873285494,RU_myo,0.6587652457545451,0.1612580171670071,-0.719130188592611,-0.1512480569795018,105.25,58.25,-23.1875,0.91845703125,0.29931640625,-0.12646484375
1969/12/31/18:00:16.120,160,1731186308,897327346,RU_myo,0.6625425163278008,0.1757217783977649,-0.7149111463608965,-0.1380627519054339,101.625,55.8125,-12.8125,0.84716796875,0.2451171875,-0.06396484375
1969/12/31/18:00:16.139,161,1731186308,912089630,RU_myo,0.6649267629641558,0.187441719209007,-0.71210763204542,-0.12506287289458,90.6875,47.4375,-4.625,0.798828125,0.302734375,-0.1455078125
1969/12/31/18:00:16.165,162,1731186308,934141464,RU_myo,0.6648326604111036,0.1971366467573547,-0.7111567207482034,-0.1157186013163914,68.9375,31.375,-5.8125,0.7919921875,0.3583984375,-0.2578125
1969/12/31/18:00:16.183,163,1731186308,949084905,RU_myo,0.6635669449901798,0.2033058769097028,-0.7116621209147808,-0.1090075941641336,45.875,17.6875,-1.8125,0.80712890625,0.35009765625,-0.29345703125
1969/12/31/18:00:16.211,164,1731186308,972298233,RU_myo,0.6624110232515765,0.2062977295301141,-0.7125816545160008,-0.1043085265582736,27.125,10.0625,3.0,0.8310546875,0.34033203125,-0.26806640625
1969/12/31/18:00:16.246,165,1731186309,809653,RU_myo,0.6608870728104022,0.2069697140653928,-0.7141706352931766,-0.1017453592884134,10.875,0.9375,3.9375,0.87451171875,0.34423828125,-0.25390625
1969/12/31/18:00:16.256,166,1731186309,9166121,RU_myo,0.659862944881703,0.2058142493886876,-0.7155280087733054,-0.1011981095748648,-3.75,-3.1875,3.6875,0.92578125,0.365234375,-0.20703125
1969/12/31/18:00:16.284,167,1731186309,32262935,RU_myo,0.6599061774222209,0.2035504163617375,-0.7160580164185623,-0.1017446908770664,-11.5,-2.3125,4.5625,0.94091796875,0.3798828125,-0.13916015625
1969/12/31/18:00:16.309,168,1731186309,53370527,RU_myo,0.6602728671621467,0.2006209016788663,-0.7164857818096173,-0.1021720077305817,-13.4375,-2.8125,7.75,0.9326171875,0.3701171875,-0.10595703125
1969/12/31/18:00:16.329,169,1731186309,69747593,RU_myo,0.6602368095416113,0.1970883477868043,-0.717489479168128,-0.1022369100473512,-13.4375,-5.75,12.0,0.92431640625,0.35986328125,-0.1123046875
1969/12/31/18:00:16.356,170,1731186309,92109181,RU_myo,0.6598290713077265,0.193536026742836,-0.7189091324515503,-0.1016811796132339,-10.5,-8.125,14.4375,0.927734375,0.353515625,-0.1162109375
1969/12/31/18:00:16.381,171,1731186309,113440785,RU_myo,0.6594197871453086,0.1906116248847462,-0.7202104302401556,-0.1006463558869505,-5.6875,-7.875,14.3125,0.94140625,0.36474609375,-0.107421875
1969/12/31/18:00:16.402,172,1731186309,129965106,RU_myo,0.6593110064156635,0.1882960983884764,-0.7210794510085771,-0.0994887002830523,-2.6875,-5.625,12.625,0.955078125,0.3798828125,-0.087890625
1969/12/31/18:00:16.428,173,1731186309,152267313,RU_myo,0.6594768875138137,0.1867653193699463,-0.7214268218799887,-0.0987536884773114,-2.125,-2.25,10.125,0.9384765625,0.4111328125,-0.08740234375
1969/12/31/18:00:16.454,174,1731186309,173257124,RU_myo,0.6598675947475594,0.1856735938601494,-0.7213925725947095,-0.0984521718923146,-2.5625,-0.375,8.0,0.93896484375,0.42822265625,-0.0859375
1969/12/31/18:00:16.474,175,1731186309,190286367,RU_myo,0.6605856050654025,0.1842657250016123,-0.7210716380155839,-0.0986331273940396,-5.8125,1.375,6.8125,0.93115234375,0.4189453125,-0.08544921875
1969/12/31/18:00:16.508,176,1731186309,218267113,RU_myo,0.6614523307421494,0.1824380378876335,-0.7206577160720271,-0.099245316027197,-10.25,2.5625,6.25,0.927734375,0.40283203125,-0.0888671875
1969/12/31/18:00:16.526,177,1731186309,233315224,RU_myo,0.6625795774239803,0.1801098317039577,-0.7200731258703131,-0.1002169920901046,-13.6875,2.875,5.625,0.931640625,0.38232421875,-0.08154296875
1969/12/31/18:00:16.547,178,1731186309,249725697,RU_myo,0.6636991497187731,0.1774909993914099,-0.7195465583993577,-0.1012577606569288,-14.875,2.125,5.9375,0.93701171875,0.3779296875,-0.06640625
1969/12/31/18:00:16.573,179,1731186309,272191916,RU_myo,0.6647145796406646,0.174799610328791,-0.7191563577179277,-0.102047817203121,-14.125,1.25,7.8125,0.9404296875,0.376953125,-0.06884765625
1969/12/31/18:00:16.601,180,1731186309,294760613,RU_myo,0.6656448588318314,0.1719958932870072,-0.7189281856024338,-0.1023552565799542,-12.375,0.75,10.0,0.9423828125,0.37646484375,-0.064453125
1969/12/31/18:00:16.619,181,1731186309,309753002,RU_myo,0.6664472965383912,0.1693736832946273,-0.7188158083462436,-0.1022956011538001,-10.0,0.5,11.25,0.93359375,0.37548828125,-0.06591796875
1969/12/31/18:00:16.646,182,1731186309,332305326,RU_myo,0.6670504121764494,0.1670525188147993,-0.7188690415055561,-0.1018062116854531,-6.6875,-0.25,12.4375,0.919921875,0.3759765625,-0.06591796875
1969/12/31/18:00:16.674,183,1731186309,354822954,RU_myo,0.6674039629361525,0.1651573044083427,-0.719099541958276,-0.1009498083855872,-3.0625,-1.375,12.5,0.91552734375,0.37646484375,-0.06298828125
1969/12/31/18:00:16.690,184,1731186309,369154616,RU_myo,0.6676872851031246,0.1637631397688713,-0.7193248610421723,-0.0997349870974042,0.4375,-1.8125,12.3125,0.9140625,0.37939453125,-0.04931640625
1969/12/31/18:00:16.718,185,1731186309,392324364,RU_myo,0.6678613278146401,0.1626012225642662,-0.7196202755378,-0.0983297933750123,2.5,-2.375,12.375,0.91748046875,0.3828125,-0.046875
1969/12/31/18:00:16.746,186,1731186309,414759225,RU_myo,0.6680492095644976,0.1613816455083172,-0.7198695639656177,-0.0972318310494513,0.9375,-2.5625,11.5,0.908203125,0.376953125,-0.04736328125
1969/12/31/18:00:16.746,1,1731186314,484516630,RU_myo,0.624678363635432,0.1577717215434872,-0.7499802376504338,-0.1497152932093517,-9.25,-2.6875,-4.8125,0.87109375,0.4228515625,-0.24609375
1969/12/31/18:00:16.774,2,1731186314,507122811,RU_myo,0.62084533296873,0.1605823899961392,-0.7519479455539475,-0.1527699438085658,-1.75,-12.5,-14.875,0.779296875,0.53515625,-0.3466796875
1969/12/31/18:00:16.799,3,1731186314,528320422,RU_myo,0.614249891741978,0.1664407248390673,-0.7551782502507446,-0.157163500718958,11.125,-33.6875,-30.8125,0.87646484375,0.65087890625,-0.27587890625
1969/12/31/18:00:16.818,4,1731186314,544629811,RU_myo,0.6106665068229792,0.1730374359663314,-0.7552000688576433,-0.1637599438087009,4.0,-24.1875,-47.25,1.1083984375,0.70947265625,-0.1259765625
1969/12/31/18:00:16.846,5,1731186314,567188923,RU_myo,0.6126113672233617,0.1799320823527418,-0.749757700007151,-0.1737675164376717,-16.75,9.6875,-60.8125,1.12841796875,0.76220703125,-0.01416015625
1969/12/31/18:00:16.872,6,1731186314,588221160,RU_myo,0.6182328326551525,0.1897606749654328,-0.7399994928532994,-0.1848778013735272,-18.5625,43.125,-76.125,1.0419921875,0.78662109375,0.017578125
1969/12/31/18:00:16.891,7,1731186314,604679808,RU_myo,0.6255527805044611,0.2031261248432868,-0.7277261978685422,-0.1945201201549143,-3.0,61.75,-89.8125,1.1083984375,0.83349609375,0.08935546875
1969/12/31/18:00:16.928,8,1731186314,634814495,RU_myo,0.6317113515060763,0.2186880939561614,-0.7152681476618075,-0.2037345402248582,-1.1875,73.1875,-103.6875,1.14453125,0.9384765625,0.0908203125
1969/12/31/18:00:16.944,9,1731186314,648251833,RU_myo,0.6392284032484138,0.2343166084284026,-0.6992876745934381,-0.2178979661603014,-26.4375,85.25,-124.875,1.10302734375,0.95654296875,0.15185546875
1969/12/31/18:00:16.965,10,1731186314,664808953,RU_myo,0.6473166220142171,0.2501745081686098,-0.6797251762561132,-0.2374185988718937,-53.0625,94.8125,-150.375,1.1787109375,1.06787109375,0.13525390625
1969/12/31/18:00:16.991,11,1731186314,687271222,RU_myo,0.6558199333306967,0.2648914388697276,-0.6562471775869381,-0.2628162524822689,-86.9375,102.125,-173.8125,1.03564453125,0.998046875,0.14013671875
1969/12/31/18:00:17.017,12,1731186314,708205320,RU_myo,0.6635160335735594,0.2790539329866905,-0.6309841555591442,-0.2893689186985783,-95.4375,104.125,-184.0,1.06201171875,0.82275390625,0.13818359375
1969/12/31/18:00:17.036,13,1731186314,724046023,RU_myo,0.6802381924156549,0.2851568268251179,-0.5941784480185196,-0.3208014301782577,-174.375,156.9375,-175.25,0.72021484375,0.6875,0.42529296875
1969/12/31/18:00:17.066,14,1731186314,748738475,RU_myo,0.701729312295923,0.2861361238621629,-0.5488955123490681,-0.3527262499572183,-220.9375,198.6875,-166.3125,0.73583984375,0.62548828125,0.39453125
1969/12/31/18:00:17.089,15,1731186314,768151769,RU_myo,0.7267384121775444,0.2838717019432064,-0.4965771161061981,-0.3803673288561734,-242.125,241.5,-147.75,0.85009765625,0.44287109375,0.31689453125
1969/12/31/18:00:17.108,16,1731186314,783995010,RU_myo,0.7508711162076982,0.2788758031176209,-0.4456885783245498,-0.3997280881193477,-226.8125,240.5625,-100.125,0.63818359375,0.671875,0.35498046875
1969/12/31/18:00:17.136,17,1731186314,807281131,RU_myo,0.7670492598590949,0.2763745562697526,-0.401316852357249,-0.417369526451539,-184.75,202.25,-107.875,0.60595703125,0.541015625,0.2734375
1969/12/31/18:00:17.161,18,1731186314,828290864,RU_myo,0.7820436653350649,0.272949291452307,-0.3599854474476088,-0.4293214034158156,-165.5625,192.625,-79.125,0.5673828125,0.44580078125,0.35986328125
1969/12/31/18:00:17.181,19,1731186314,844118836,RU_myo,0.7971315860918052,0.2665446888562721,-0.3203175010574114,-0.4369575057298034,-164.3125,184.9375,-50.6875,0.53466796875,0.4013671875,0.49560546875
1969/12/31/18:00:17.209,20,1731186314,867439073,RU_myo,0.8102587249590287,0.2652033265496783,-0.2860777886164194,-0.4373871203808964,-110.625,179.75,-23.5,0.46826171875,0.34423828125,0.55419921875
1969/12/31/18:00:17.234,21,1731186314,888212118,RU_myo,0.8210018722504091,0.271673431966885,-0.2580012574531617,-0.4307955701690125,-43.0625,177.375,0.5625,0.3974609375,0.2998046875,0.56494140625
1969/12/31/18:00:17.262,22,1731186314,910910415,RU_myo,0.8293578793234967,0.2865032297280316,-0.236514702853882,-0.417303489912772,26.4375,174.125,25.0,0.3701171875,0.28466796875,0.56591796875
1969/12/31/18:00:17.283,23,1731186314,928675105,RU_myo,0.8337491345438988,0.3082308293884838,-0.2234520923547008,-0.3999066127036328,93.125,151.3125,38.9375,0.34033203125,0.33203125,0.73095703125
1969/12/31/18:00:17.309,24,1731186314,949632031,RU_myo,0.8322242283589223,0.3400308893426884,-0.2218654250153782,-0.3775679557483163,179.25,119.8125,58.0,0.25830078125,0.73974609375,0.64892578125
1969/12/31/18:00:17.326,25,1731186314,964106886,RU_myo,0.8328696195513239,0.3657423789191303,-0.2149163745284141,-0.3554879196970986,129.25,135.125,58.125,0.263671875,0.66748046875,0.18603515625
1969/12/31/18:00:17.353,26,1731186314,987294457,RU_myo,0.8368062806663414,0.3801944801072677,-0.1988559345303384,-0.3400936977296028,42.0,145.375,28.0,0.2431640625,0.74560546875,0.24755859375
1969/12/31/18:00:17.381,27,1731186315,9773915,RU_myo,0.8377645958145005,0.3944073159080069,-0.1850577192561245,-0.3291610421993006,47.6875,119.75,7.1875,0.11767578125,1.00341796875,0.50341796875
1969/12/31/18:00:17.405,28,1731186315,30520808,RU_myo,0.8382568328147499,0.4052124008342161,-0.1744995110686886,-0.3204345691187882,20.25,90.125,10.625,-0.01416015625,0.82861328125,0.28271484375
1969/12/31/18:00:17.426,29,1731186315,47324380,RU_myo,0.8449665559801998,0.4019145312864501,-0.1627799627852638,-0.3130477799496131,-56.4375,75.3125,22.4375,0.04150390625,0.52734375,0.22314453125
1969/12/31/18:00:17.454,30,1731186315,69831406,RU_myo,0.8504020162730881,0.4003292058232387,-0.1572264116787106,-0.3030392600872664,-22.5625,56.6875,41.5625,0.11572265625,0.5244140625,0.39453125
1969/12/31/18:00:17.479,31,1731186315,90820433,RU_myo,0.8506119567215449,0.4086428709996228,-0.1579638163027668,-0.2907193419822559,45.5625,42.75,50.4375,0.10205078125,0.595703125,0.34423828125
1969/12/31/18:00:17.498,32,1731186315,107425966,RU_myo,0.8496223994455179,0.4179141213364555,-0.1601587051828332,-0.2789959761397602,47.3125,33.5,49.9375,0.07080078125,0.69873046875,0.26416015625
1969/12/31/18:00:17.526,33,1731186315,129646052,RU_myo,0.8472714907819634,0.4276947868243799,-0.1631551541574949,-0.2694226900303714,52.0,22.625,41.25,0.0478515625,0.86376953125,0.35791015625
1969/12/31/18:00:17.552,34,1731186315,150862351,RU_myo,0.8430576205939075,0.4388636180184039,-0.1691974894502108,-0.2608156105413964,71.0,6.125,39.0,0.07763671875,0.96337890625,0.46240234375
1969/12/31/18:00:17.571,35,1731186315,167246697,RU_myo,0.839573151142574,0.446551593875614,-0.1750560376210034,-0.2550764230188889,46.875,-4.5625,29.25,0.08544921875,0.99755859375,0.41748046875
1969/12/31/18:00:17.599,36,1731186315,189785564,RU_myo,0.8400116124189333,0.446130277224966,-0.177805102962967,-0.2524551685049199,-3.375,-5.375,19.3125,0.10009765625,0.8623046875,0.43505859375
1969/12/31/18:00:17.624,37,1731186315,210742810,RU_myo,0.8397991849711657,0.4464809243450888,-0.1821935145823773,-0.2493945395589928,9.75,-10.5625,21.6875,0.1337890625,0.7626953125,0.45166015625
1969/12/31/18:00:17.643,38,1731186315,227300075,RU_myo,0.8372305491458477,0.4498962147520626,-0.1902491522700012,-0.2458529308128216,32.25,-23.3125,24.25,0.19482421875,0.83154296875,0.41845703125
1969/12/31/18:00:17.671,39,1731186315,249884679,RU_myo,0.8353483361798382,0.4523430161792182,-0.1972095918600801,-0.242254679694416,33.25,-16.4375,19.3125,0.30810546875,0.9833984375,0.64208984375
1969/12/31/18:00:17.696,40,1731186315,270868020,RU_myo,0.8337762623273408,0.4543042987190628,-0.2023402862090142,-0.2397564537644066,30.5,-11.875,10.0,0.32080078125,1.04248046875,0.73388671875
1969/12/31/18:00:17.716,41,1731186315,287420621,RU_myo,0.8336327508363426,0.4541705446605085,-0.2063634741966374,-0.2370646949954865,14.0,-9.125,16.25,0.26025390625,0.9501953125,0.64599609375
1969/12/31/18:00:17.744,42,1731186315,309752632,RU_myo,0.8329824730854345,0.4549755517241026,-0.2105803130464387,-0.2340798552269833,6.5625,-7.5,17.625,0.2509765625,0.9755859375,0.435546875
1969/12/31/18:00:17.769,43,1731186315,330813110,RU_myo,0.8324428233846192,0.4549808480355588,-0.2123528803750616,-0.2343877725324048,-6.9375,-8.75,3.3125,0.15673828125,1.052734375,0.435546875
1969/12/31/18:00:17.788,44,1731186315,347162730,RU_myo,0.8338131632408974,0.4508120945536394,-0.2111846530132131,-0.2385898290834249,-27.25,-10.6875,-14.625,0.11279296875,0.88134765625,0.5712890625
1969/12/31/18:00:17.816,45,1731186315,369646212,RU_myo,0.835552178013489,0.4466166474194388,-0.2105818550768162,-0.2409178498516503,-18.875,-7.125,-7.5,0.138671875,0.6298828125,0.5380859375
1969/12/31/18:00:17.841,46,1731186315,390768310,RU_myo,0.8346645706042884,0.4476975960060296,-0.2121604422245343,-0.2406031252155104,13.1875,-5.125,0.0625,0.150390625,0.619140625,0.4248046875
1969/12/31/18:00:17.862,47,1731186315,407578485,RU_myo,0.8308035135530197,0.4542808221697859,-0.2149640004946911,-0.2391337177564451,45.375,-5.0625,0.75,0.11865234375,0.7236328125,0.39111328125
1969/12/31/18:00:17.888,48,1731186315,429699671,RU_myo,0.8249840983879593,0.4637025891871357,-0.2179042047384592,-0.2385349109573945,63.1875,-7.25,-7.5,0.12548828125,0.9345703125,0.482421875
1969/12/31/18:00:17.914,49,1731186315,450739987,RU_myo,0.8196659599356583,0.4720602080677921,-0.2187566312018318,-0.2396923244223196,55.0,-2.6875,-20.375,0.14990234375,1.06298828125,0.58154296875
1969/12/31/18:00:17.933,50,1731186315,467173741,RU_myo,0.8176989042892397,0.4755922864986008,-0.2169218411468207,-0.241092085686534,21.0625,6.3125,-18.8125,0.138671875,0.97314453125,0.55712890625
1969/12/31/18:00:17.961,51,1731186315,489787760,RU_myo,0.8182501728470115,0.4752272001929607,-0.2145419481991082,-0.2420692365740152,0.1875,8.0,-10.6875,0.12353515625,0.81103515625,0.54541015625
1969/12/31/18:00:17.997,52,1731186315,519669387,RU_myo,0.817773128767496,0.4761492892607281,-0.2136903809385731,-0.2426218978094339,11.1875,3.75,-9.5625,0.1533203125,0.78955078125,0.53125
1969/12/31/18:00:18.013,53,1731186315,533238346,RU_myo,0.8162519457440893,0.4791428829799671,-0.2130202116688007,-0.24244019505687,28.375,6.0625,-9.6875,0.1455078125,0.77490234375,0.5693359375
1969/12/31/18:00:18.033,54,1731186315,549728515,RU_myo,0.8132745795043009,0.4849494546804016,-0.2127185462002768,-0.2411624034540297,41.125,9.1875,-7.375,0.1171875,0.810546875,0.470703125
1969/12/31/18:00:18.062,55,1731186315,573733189,RU_myo,0.809651106928005,0.4917722554480916,-0.2119192343199422,-0.2402402379848192,38.8125,9.8125,-7.8125,0.05078125,0.880859375,0.3671875
1969/12/31/18:00:18.067,56,1731186315,578362088,RU_myo,0.8057762671201696,0.4985057778630729,-0.2110119351135843,-0.2401885926155493,39.0,7.3125,-11.6875,0.03271484375,0.8759765625,0.3720703125
1969/12/31/18:00:18.085,57,1731186315,592641473,RU_myo,0.8024664213550988,0.5039296246069594,-0.2103979428319027,-0.2404896706578755,36.0625,4.375,-12.5,0.06201171875,0.87109375,0.4326171875
1969/12/31/18:00:18.112,58,1731186315,615101587,RU_myo,0.7997767213931353,0.5083217992644457,-0.2107020714530338,-0.2399391201859433,35.125,2.875,-6.9375,0.107421875,0.87353515625,0.46923828125
1969/12/31/18:00:18.140,59,1731186315,638105352,RU_myo,0.7977973065651507,0.5116010269779736,-0.2106951497408691,-0.2395650239666602,24.125,4.25,-7.6875,0.1416015625,0.9765625,0.45751953125
1969/12/31/18:00:18.167,60,1731186315,661438721,RU_myo,0.7967942820086693,0.5135764584664427,-0.2086900298902742,-0.2404299583906962,8.0625,7.8125,-13.1875,0.0966796875,1.111328125,0.4638671875
1969/12/31/18:00:18.184,61,1731186315,675047563,RU_myo,0.7972460757682339,0.5134308673528084,-0.2041028079443403,-0.2431655463068935,-10.5,12.1875,-23.5,0.06689453125,1.16943359375,0.5146484375
1969/12/31/18:00:18.212,62,1731186315,698131583,RU_myo,0.7987757461191568,0.5116022238840661,-0.1967794762350547,-0.2479885272776139,-28.8125,17.875,-37.75,0.05908203125,1.20166015625,0.52099609375
1969/12/31/18:00:18.229,63,1731186315,712492420,RU_myo,0.8023871661559273,0.5066648308428687,-0.1857343790211841,-0.2548888487651873,-57.25,27.6875,-54.1875,0.06103515625,1.125,0.50830078125
1969/12/31/18:00:18.257,64,1731186315,735012510,RU_myo,0.8068282449968696,0.5005521171964088,-0.1719369972128135,-0.2625136759007138,-66.5625,37.9375,-64.0625,0.044921875,1.013671875,0.5400390625
1969/12/31/18:00:18.285,65,1731186315,758168186,RU_myo,0.8104570276088272,0.4956862118701074,-0.1571717763287189,-0.2697250794549938,-53.125,46.375,-70.1875,0.060546875,0.861328125,0.59130859375
1969/12/31/18:00:18.301,66,1731186315,772424572,RU_myo,0.8126005921899911,0.4939205282056192,-0.1424019515946255,-0.2746715740144941,-31.5625,57.0625,-65.9375,0.05810546875,0.80419921875,0.59326171875
1969/12/31/18:00:18.329,67,1731186315,795127849,RU_myo,0.813819872089402,0.494957274639838,-0.127386340137297,-0.2765632521140839,-10.75,70.8125,-55.6875,0.02978515625,0.728515625,0.607421875
1969/12/31/18:00:18.357,68,1731186315,818385095,RU_myo,0.8137410229972751,0.4989748622114255,-0.1128568220463517,-0.2758857953756138,8.3125,79.6875,-46.125,-0.00146484375,0.7177734375,0.58447265625
1969/12/31/18:00:18.374,69,1731186315,832609369,RU_myo,0.8131688072825178,0.5045150012007275,-0.0980831849660741,-0.2731314578240086,14.0,86.625,-34.5625,-0.0859375,0.732421875,0.53173828125
1969/12/31/18:00:18.402,70,1731186315,855021904,RU_myo,0.8125800304088336,0.5102047978808263,-0.0833759724734069,-0.2691713313380122,12.5625,88.9375,-27.4375,-0.126953125,0.71728515625,0.4658203125
1969/12/31/18:00:18.429,71,1731186315,878137507,RU_myo,0.8133067943374228,0.5139854795583818,-0.0682994598771914,-0.2639813797755612,-2.125,89.0,-15.5,-0.22021484375,0.732421875,0.4375
1969/12/31/18:00:18.448,72,1731186315,892733054,RU_myo,0.8152888212925048,0.5158958686504642,-0.0544461801746585,-0.2572765128208361,-4.4375,86.0,0.75,-0.25146484375,0.5810546875,0.48388671875
1969/12/31/18:00:18.485,73,1731186315,924142365,RU_myo,0.8160730933189465,0.5197354068519693,-0.0430315281069451,-0.2490945619921182,8.0625,82.625,8.0,-0.18603515625,0.56396484375,0.40625
1969/12/31/18:00:18.502,74,1731186315,938307321,RU_myo,0.8152802541523967,0.5259616642982108,-0.0328993080024063,-0.2400001466891685,23.875,82.9375,11.9375,-0.17333984375,0.58203125,0.373046875
1969/12/31/18:00:18.520,75,1731186315,952686448,RU_myo,0.8142294529430951,0.5328503091599116,-0.0233160158189102,-0.2292538099890753,23.625,85.375,21.0625,-0.1953125,0.67041015625,0.31591796875
1969/12/31/18:00:18.547,76,1731186315,975162024,RU_myo,0.8135390857162194,0.5391245212792681,-0.0152588169726952,-0.2174076242269617,18.375,79.0,32.25,-0.22216796875,0.70166015625,0.26806640625
1969/12/31/18:00:18.574,77,1731186315,998373150,RU_myo,0.8125960207521187,0.5449453371347491,-0.0091556676265918,-0.2064908238717357,20.0,67.1875,34.0,-0.21630859375,0.6806640625,0.25830078125
1969/12/31/18:00:18.592,78,1731186316,12617738,RU_myo,0.8108256742828626,0.5516593228070243,-0.0059817009996778,-0.1954429244996782,30.1875,54.875,42.125,-0.20654296875,0.681640625,0.24072265625
1969/12/31/18:00:18.619,79,1731186316,35192202,RU_myo,0.8091751313448432,0.558249660653235,-0.0063479077966254,-0.1831737624776249,29.5,42.5,56.25,-0.158203125,0.72607421875,0.1884765625
1969/12/31/18:00:18.647,80,1731186316,58263308,RU_myo,0.8079361151588208,0.5638523707665776,-0.0090333568817334,-0.1709623826063199,21.0625,30.75,61.625,-0.1376953125,0.8623046875,0.15283203125
1969/12/31/18:00:18.665,81,1731186316,72717351,RU_myo,0.8075772268782885,0.5673365825586646,-0.0118411293185993,-0.1606487235389354,9.8125,21.8125,56.375,-0.17138671875,0.95947265625,0.203125
1969/12/31/18:00:18.692,82,1731186316,95128837,RU_myo,0.8076170987460646,0.5695189803808592,-0.0158081037315017,-0.1521606278093968,5.5,9.9375,51.1875,-0.1396484375,0.96240234375,0.23388671875
1969/12/31/18:00:18.719,83,1731186316,118263769,RU_myo,0.8088804819350406,0.5696100707378358,-0.020875122609552,-0.1442947071607633,-8.5,2.6875,49.375,-0.06787109375,0.96630859375,0.21337890625
1969/12/31/18:00:18.737,84,1731186316,132658166,RU_myo,0.8122599957966861,0.5664701698969825,-0.0258790380386079,-0.1366584107746303,-29.6875,0.9375,47.8125,-0.0166015625,1.005859375,0.24853515625
1969/12/31/18:00:18.764,85,1731186316,154937834,RU_myo,0.81576599655385,0.5628266557593005,-0.0302135554279203,-0.1297656946257751,-28.0625,2.25,42.1875,0.00390625,1.03955078125,0.34619140625
1969/12/31/18:00:18.792,86,1731186316,178313593,RU_myo,0.8186292838938553,0.5598320751472144,-0.0335703926440218,-0.1237221561626039,-20.375,4.75,34.4375,0.0205078125,1.00732421875,0.39208984375
1969/12/31/18:00:18.810,87,1731186316,192744790,RU_myo,0.8205548928186811,0.5579626776207367,-0.0368678981821381,-0.1183557194953077,-18.0625,3.0,30.5,0.0244140625,1.04443359375,0.3251953125
1969/12/31/18:00:18.836,88,1731186316,214962941,RU_myo,0.8223310117583459,0.5560942513271201,-0.0394899550662547,-0.1138922042559989,-21.6875,3.375,23.75,0.03759765625,1.06494140625,0.28564453125
1969/12/31/18:00:18.855,89,1731186316,229978063,RU_myo,0.8241921112119873,0.5539781975383246,-0.0409562990908126,-0.1101730549313217,-20.25,5.625,18.25,0.02783203125,1.00732421875,0.32373046875
1969/12/31/18:00:18.881,90,1731186316,252480425,RU_myo,0.8247359351786577,0.5537303436901112,-0.0425429948800713,-0.1066931923247701,-2.75,5.4375,17.5625,0.015625,0.93896484375,0.36767578125
1969/12/31/18:00:18.909,91,1731186316,275089875,RU_myo,0.8237856560266715,0.5556402509492288,-0.0440092959391842,-0.1034615209665981,8.125,5.0,15.6875,0.001953125,1.02294921875,0.33056640625
1969/12/31/18:00:18.927,92,1731186316,289963249,RU_myo,0.8231373123477788,0.5569574355015188,-0.0441903762523944,-0.1014425488003862,1.875,6.875,7.0,-0.0087890625,1.07470703125,0.330078125
1969/12/31/18:00:18.954,93,1731186316,312382589,RU_myo,0.8229298035151289,0.5574095064308082,-0.0444365002936518,-0.1005314779995117,-1.8125,2.3125,3.0625,-0.0205078125,0.990234375,0.32373046875
1969/12/31/18:00:18.981,94,1731186316,335047752,RU_myo,0.8235056217295099,0.5565315934575802,-0.0455943299312143,-0.1001610380416636,-8.75,-4.3125,4.9375,-0.015625,0.90576171875,0.31591796875
1969/12/31/18:00:18.999,95,1731186316,350086508,RU_myo,0.8246120910401782,0.5548278243934285,-0.0468765422589827,-0.0999178381223369,-11.4375,-5.5,4.6875,-0.01123046875,0.90478515625,0.35791015625
1969/12/31/18:00:19.027,96,1731186316,372753662,RU_myo,0.8252568841255199,0.5538944030352113,-0.0476074528228611,-0.0994263341646676,-2.75,-1.75,4.6875,-0.0185546875,0.86328125,0.408203125
1969/12/31/18:00:19.054,97,1731186316,395038753,RU_myo,0.8249113977814236,0.5545186865589518,-0.0480969427637263,-0.0985743179738808,8.25,0.25,5.875,-0.0419921875,0.84033203125,0.404296875
1969/12/31/18:00:19.072,98,1731186316,410076902,RU_myo,0.8238971227462044,0.5561214020848029,-0.0493190750614115,-0.0974173809381347,16.0625,-1.3125,8.5,-0.029296875,0.8583984375,0.416015625
1969/12/31/18:00:19.100,99,1731186316,432633646,RU_myo,0.8234155872556668,0.5569194824403784,-0.050845454720828,-0.0961363639679522,9.375,-3.375,11.5,-0.03662109375,0.8505859375,0.384765625
1969/12/31/18:00:19.136,100,1731186316,462733077,RU_myo,0.8238092685914309,0.5562864098645848,-0.053406913389457,-0.095033787597011,-5.4375,-9.8125,16.5,-0.06103515625,0.85302734375,0.2998046875
1969/12/31/18:00:19.148,101,1731186316,473242538,RU_myo,0.8248979252340702,0.554387558631229,-0.0571904813869273,-0.0944833139668768,-19.25,-17.5625,17.1875,-0.03173828125,0.91796875,0.23876953125
1969/12/31/18:00:19.173,102,1731186316,494028436,RU_myo,0.8274383306241497,0.5503844369458512,-0.0603671074791445,-0.0936941455818877,-27.5625,-11.375,10.375,0.08935546875,1.1044921875,0.42578125
1969/12/31/18:00:19.199,103,1731186316,515093802,RU_myo,0.8297496381952704,0.5468998645159352,-0.0594509450935849,-0.0942425659389066,-9.8125,3.375,-7.125,0.0556640625,1.03955078125,0.67041015625
1969/12/31/18:00:19.220,104,1731186316,532762487,RU_myo,0.8313919041863963,0.5444545764145551,-0.0591453458010878,-0.0941198382097807,-11.625,1.0625,1.4375,-0.00341796875,0.89306640625,0.4765625
1969/12/31/18:00:19.246,105,1731186316,554107767,RU_myo,0.8322566506176866,0.5429963449867943,-0.0601837225895884,-0.094243070667672,-19.875,-4.5625,0.25,0.0478515625,0.9951171875,0.26708984375
1969/12/31/18:00:19.275,106,1731186316,577857062,RU_myo,0.8337890467104184,0.5404979508507142,-0.0609776908977824,-0.0945489921928578,-17.25,-2.6875,-3.9375,0.0986328125,0.953125,0.41357421875
1969/12/31/18:00:19.293,107,1731186316,593012639,RU_myo,0.8364456600267337,0.536511774053925,-0.061585936293562,-0.0933860084530722,-21.25,2.3125,3.5,0.1064453125,0.83740234375,0.4658203125
1969/12/31/18:00:19.318,108,1731186316,614025435,RU_myo,0.8387092091161654,0.5332801368203142,-0.0617083917048572,-0.0914944403220385,-19.8125,6.125,8.25,0.06201171875,0.802734375,0.40625
1969/12/31/18:00:19.344,109,1731186316,635195457,RU_myo,0.838846208853399,0.5335337780388242,-0.0612211851473447,-0.0890545454934955,3.0,10.3125,8.9375,0.02685546875,0.82080078125,0.4072265625
1969/12/31/18:00:19.365,110,1731186316,653116377,RU_myo,0.8369586607708354,0.536893843359121,-0.0615267160193262,-0.0863693483803042,19.875,9.375,8.875,0.0517578125,0.84130859375,0.337890625
1969/12/31/18:00:19.391,111,1731186316,674059138,RU_myo,0.8350622249042475,0.5400650950919363,-0.0618315937305754,-0.084720880649594,14.3125,5.75,3.5625,0.060546875,0.9130859375,0.294921875
1969/12/31/18:00:19.416,112,1731186316,695019644,RU_myo,0.8334079335132112,0.542380467057155,-0.0628687689701631,-0.0854526956876003,0.8125,-6.25,-2.8125,0.0263671875,1.0673828125,0.2265625
1969/12/31/18:00:19.438,113,1731186316,713117607,RU_myo,0.8337735676016735,0.540854142204863,-0.0656764537876574,-0.0893590412129465,-30.75,-24.875,-11.0625,0.0419921875,1.150390625,0.17041015625
1969/12/31/18:00:19.463,114,1731186316,734125124,RU_myo,0.8355485747545705,0.5354249468731895,-0.0732455467678781,-0.0990646020035552,-77.75,-65.875,-23.875,0.0703125,1.091796875,-0.23193359375
1969/12/31/18:00:19.490,115,1731186316,755827955,RU_myo,0.847304652000636,0.5119717202839169,-0.0830092441089803,-0.1143208192765589,-164.375,-101.0,-28.125,0.11279296875,0.90625,-0.50732421875
1969/12/31/18:00:19.510,116,1731186316,772907140,RU_myo,0.8613483324824008,0.4807852051419977,-0.0953391507467056,-0.1335480549512112,-205.4375,-128.0625,-35.9375,0.201171875,0.880859375,-0.25048828125
1969/12/31/18:00:19.536,117,1731186316,794065923,RU_myo,0.8736596884066803,0.4477254114764899,-0.1086504747686642,-0.1563834361557964,-205.25,-144.75,-52.5,0.2900390625,0.71923828125,0.0810546875
1969/12/31/18:00:19.561,118,1731186316,814982023,RU_myo,0.8829405566947937,0.4155301610658202,-0.122925638129636,-0.1806652874199218,-187.9375,-153.625,-60.875,0.3544921875,0.4296875,0.29248046875
1969/12/31/18:00:19.583,119,1731186316,833027555,RU_myo,0.8864307491890732,0.3911818957207719,-0.1403835793661687,-0.2037392990975092,-128.0625,-162.25,-59.4375,0.40966796875,0.29541015625,0.38330078125
1969/12/31/18:00:19.609,120,1731186316,855476082,RU_myo,0.8835623901782829,0.3781813048870296,-0.1625398345568366,-0.2233320520628859,-47.1875,-170.0,-47.9375,0.439453125,0.30322265625,0.44677734375
1969/12/31/18:00:19.633,121,1731186316,875093534,RU_myo,0.8749821714127088,0.3750185183927229,-0.1911715494150404,-0.2392085894500457,26.4375,-188.0,-30.375,0.421875,0.42236328125,0.49609375
1969/12/31/18:00:19.655,122,1731186316,892968805,RU_myo,0.8628348506225002,0.376544156302363,-0.2251085829864021,-0.2511108216936167,70.0,-203.875,-9.9375,0.47314453125,0.462890625,0.57177734375
1969/12/31/18:00:19.682,123,1731186316,915444062,RU_myo,0.8493423917064274,0.3783739479833377,-0.2619746708734449,-0.2584955105193475,83.875,-209.625,15.8125,0.56005859375,0.40966796875,0.46435546875
1969/12/31/18:00:19.706,124,1731186316,934983924,RU_myo,0.8359909650528021,0.3781369763801189,-0.3000680187061605,-0.2609419812792588,82.75,-207.375,44.6875,0.67529296875,0.49365234375,0.46337890625
1969/12/31/18:00:19.728,125,1731186316,953127493,RU_myo,0.8235471469906485,0.3740233392691539,-0.3381346768196985,-0.2598876270574506,67.6875,-204.8125,70.5,0.708984375,0.642578125,0.5029296875
1969/12/31/18:00:19.754,126,1731186316,975401000,RU_myo,0.8129949124888348,0.3612700365631692,-0.3759796291990407,-0.2591573872693388,19.0625,-214.0625,89.75,0.63720703125,0.6865234375,0.34033203125
1969/12/31/18:00:19.780,127,1731186316,995778363,RU_myo,0.8044348051885423,0.3366663418376327,-0.413691889952044,-0.2615328634471095,-46.375,-234.6875,105.875,0.63427734375,0.78076171875,0.4033203125
1969/12/31/18:00:19.809,128,1731186317,19699243,RU_myo,0.7944565781915043,0.3073819397489563,-0.4502083374877486,-0.2677079403770696,-74.0,-247.5,93.375,0.79345703125,0.74267578125,0.54296875
1969/12/31/18:00:19.827,129,1731186317,34653151,RU_myo,0.7827405831393973,0.2753996811544729,-0.485794783313043,-0.2747282723573321,-85.8125,-253.75,90.6875,0.7626953125,0.4150390625,0.447265625
1969/12/31/18:00:19.852,130,1731186317,55639409,RU_myo,0.7623958752552544,0.2439593558078017,-0.5316202124308115,-0.2767965170348714,-39.9375,-315.625,114.0,0.90673828125,0.47119140625,0.42919921875
1969/12/31/18:00:19.871,131,1731186317,71991755,RU_myo,0.7401110115954235,0.2235713867288501,-0.5722035901127408,-0.2735590923610991,22.5625,-278.25,93.0625,1.05224609375,0.5478515625,0.74560546875
1969/12/31/18:00:19.898,132,1731186317,94559443,RU_myo,0.7183131795099832,0.2140474399304538,-0.6079630878663389,-0.2618983646254854,89.0,-229.0,84.9375,1.1162109375,0.3359375,0.69873046875
1969/12/31/18:00:19.925,133,1731186317,115905440,RU_myo,0.6967080616326498,0.2050756975107931,-0.6420212089631049,-0.2456635959764709,101.9375,-214.4375,103.5625,1.03125,0.4912109375,0.50634765625
